Packet number,Gyroscope X (deg/s),Gyroscope Y (deg/s),Gyroscope Z (deg/s),Accelerometer X (g),Accelerometer Y (g),Accelerometer Z (g),Magnetometer X (G),Magnetometer Y (G),Magnetometer Z (G)
1,-0.07634,-0.10687,-0.24427,0.09229,-0.06763,0.98560,0.00,0.00,0.00
2,-0.09160,0.05344,-0.14504,0.08911,-0.07568,0.99951,0.00,0.00,0.00
3,-0.10687,0.19084,0.06870,0.09106,-0.06689,1.00220,0.00,0.00,0.00
4,-0.21374,-0.15267,-0.13740,0.09521,-0.06201,0.98730,0.00,0.00,0.00
5,-0.10687,-0.03817,-0.09160,0.09155,-0.06958,0.99390,0.00,0.00,0.00
6,0.09160,-0.05344,-0.17557,0.08984,-0.07251,0.99316,0.00,0.00,0.00
7,-0.02290,-0.09160,-0.22137,0.09521,-0.07495,0.99658,0.00,0.00,0.00
8,0.12977,-0.05344,-0.04580,0.09912,-0.07251,0.98975,0.00,0.00,0.00
9,-0.02290,0.25191,-0.24427,0.09033,-0.06934,0.99194,0.00,0.00,0.00
10,-0.21374,0.19847,-0.20611,0.09082,-0.06641,0.99072,0.00,0.00,0.00
11,0.00763,0.06107,-0.01527,0.09009,-0.06616,0.98633,0.00,0.00,0.00
12,-0.16031,0.03817,0.03053,0.08765,-0.07080,0.99438,0.00,0.00,0.00
13,-0.13740,0.09924,-0.25191,0.09277,-0.07397,0.99121,0.00,0.00,0.00
14,-0.06107,0.15267,-0.16794,0.09351,-0.06641,0.99072,0.00,0.00,0.00
15,-0.18321,-0.11450,-0.10687,0.09082,-0.07056,0.98633,0.00,0.00,0.00
16,-0.22901,0.23664,0.08397,0.08887,-0.07129,0.99023,0.00,0.00,0.00
17,-0.23664,0.17557,-0.25191,0.09814,-0.07031,0.99292,0.00,0.00,0.00
18,-0.16031,0.25191,-0.35115,0.09277,-0.07227,0.99756,0.00,0.00,0.00
19,-0.06107,0.16794,-0.13740,0.09424,-0.07153,0.99512,0.00,0.00,0.00
20,-0.11450,-0.04580,-0.05344,0.09131,-0.06836,0.99146,0.00,0.00,0.00
21,-0.10687,0.38931,-0.12977,0.09033,-0.07373,0.98584,0.00,0.00,0.00
22,-0.22901,0.23664,-0.27481,0.08716,-0.07080,0.98804,0.00,0.00,0.00
23,-0.14504,0.27481,-0.06107,0.09155,-0.06982,0.99438,0.00,0.00,0.00
24,-0.02290,0.25954,-0.17557,0.08740,-0.07690,0.98779,0.00,0.00,0.00
25,-0.25954,0.22137,-0.22137,0.09009,-0.06763,0.98437,0.00,0.00,0.00
26,-0.38168,0.52672,-0.18321,0.09326,-0.07178,0.99023,0.00,0.00,0.00
27,-0.09160,0.29008,-0.11450,0.09229,-0.07397,0.98071,0.00,0.00,0.00
28,-0.12977,0.12977,-0.06107,0.08716,-0.07031,0.98315,0.00,0.00,0.00
29,-0.17557,0.14504,-0.09924,0.09473,-0.07495,0.99609,0.00,0.00,0.00
30,-0.06107,0.12977,-0.13740,0.09351,-0.07031,0.98779,0.00,0.00,0.00
31,-0.27481,0.27481,-0.24427,0.09131,-0.06787,0.98853,0.00,0.00,0.00
32,-0.06107,0.32061,-0.23664,0.09229,-0.07422,0.98560,0.00,0.00,0.00
33,0.16031,0.10687,-0.15267,0.09253,-0.07324,0.98511,0.00,0.00,0.00
34,-0.12214,0.07634,-0.22137,0.08423,-0.07471,0.98755,0.00,0.00,0.00
35,-0.14504,0.09160,-0.30534,0.08911,-0.07153,0.98218,0.00,0.00,0.00
36,-0.25954,0.28244,-0.09160,0.09497,-0.06445,0.99243,0.00,0.00,0.00
37,-0.16794,0.12977,-0.17557,0.09644,-0.07300,0.98584,0.00,0.00,0.00
38,0.06107,0.31298,-0.12977,0.09131,-0.06958,0.98877,0.00,0.00,0.00
39,-0.03053,0.09924,-0.29008,0.08667,-0.06860,0.98755,0.00,0.00,0.00
40,-0.23664,0.35878,-0.14504,0.09424,-0.07446,0.99414,0.00,0.00,0.00
41,-0.17557,0.29008,-0.00763,0.09229,-0.07446,0.99512,0.00,0.00,0.00
42,0.03817,0.33588,-0.12977,0.08813,-0.07104,0.99731,0.00,0.00,0.00
43,-0.03053,0.15267,-0.32061,0.08423,-0.07349,0.99219,0.00,0.00,0.00
44,-0.06107,0.15267,-0.03817,0.08838,-0.06592,0.98804,0.00,0.00,0.00
45,-0.22901,0.12214,-0.24427,0.08691,-0.07202,0.99463,0.00,0.00,0.00
46,0.11450,-0.07634,-0.10687,0.09229,-0.07202,0.98755,0.00,0.00,0.00
47,0.23664,-0.00763,-0.15267,0.08594,-0.07397,0.98877,0.00,0.00,0.00
48,-0.19084,0.27481,-0.07634,0.08984,-0.06445,0.99341,0.00,0.00,0.00
49,-0.21374,0.15267,-0.11450,0.09033,-0.06299,0.98926,0.00,0.00,0.00
50,-0.09924,0.16794,-0.09924,0.09180,-0.06982,0.99072,0.00,0.00,0.00
51,0.16031,-0.01527,-0.20611,0.09546,-0.07495,0.99072,0.00,0.00,0.00
52,-0.10687,-0.05344,-0.17557,0.09058,-0.07373,0.98804,0.00,0.00,0.00
53,-0.15267,0.19084,-0.05344,0.09106,-0.06763,0.99512,0.00,0.00,0.00
54,0.00763,0.35115,-0.13740,0.09277,-0.06738,0.98560,0.00,0.00,0.00
55,-0.01527,0.05344,0.04580,0.08545,-0.06689,0.98950,0.00,0.00,0.00
56,-0.20611,-0.07634,-0.16031,0.09155,-0.07471,0.98877,0.00,0.00,0.00
57,0.08397,0.31298,-0.24427,0.08838,-0.07642,0.98413,0.00,0.00,0.00
58,-0.04580,0.27481,-0.11450,0.09058,-0.07056,0.98755,0.00,0.00,0.00
59,-0.20611,0.09160,0.02290,0.08911,-0.07422,0.99121,0.00,0.00,0.00
60,-0.38168,0.27481,-0.07634,0.09351,-0.07227,0.98853,0.00,0.00,0.00
61,-0.18321,0.37405,-0.05344,0.09082,-0.07104,0.98853,0.00,0.00,0.00
62,0.05344,-0.10687,0.00763,0.08765,-0.07300,1.00049,0.00,0.00,0.00
63,-0.06107,-0.14504,-0.34351,0.09424,-0.07275,0.98437,0.00,0.00,0.00
64,-0.08397,0.16031,-0.12977,0.08838,-0.07471,0.99097,0.00,0.00,0.00
65,-0.16031,-0.05344,-0.06107,0.09009,-0.06787,0.99219,0.00,0.00,0.00
66,0.04580,0.15267,-0.24427,0.08789,-0.06470,0.98657,0.00,0.00,0.00
67,-0.10687,-0.05344,-0.19084,0.09473,-0.07153,0.99170,0.00,0.00,0.00
68,-0.10687,0.18321,-0.21374,0.09204,-0.07446,0.99243,0.00,0.00,0.00
69,0.10687,-0.08397,0.02290,0.09497,-0.06860,0.98877,0.00,0.00,0.00
70,-0.17557,0.08397,-0.08397,0.09351,-0.06445,0.98560,0.00,0.00,0.00
71,-0.04580,0.06870,-0.22137,0.08521,-0.06885,0.99121,0.00,0.00,0.00
72,-0.18321,0.15267,-0.32061,0.08838,-0.07349,0.98633,0.00,0.00,0.00
73,-0.06870,0.18321,-0.27481,0.09424,-0.07446,0.99805,0.00,0.00,0.00
74,-0.08397,0.22137,-0.18321,0.08936,-0.07520,0.98730,0.00,0.00,0.00
75,-0.26718,0.16794,-0.03053,0.08813,-0.07031,0.99292,0.00,0.00,0.00
76,-0.16794,-0.06870,-0.24427,0.09277,-0.07031,0.98755,0.00,0.00,0.00
77,-0.23664,0.09160,-0.07634,0.08569,-0.07056,0.98437,0.00,0.00,0.00
78,-0.20611,0.16031,-0.20611,0.09131,-0.06494,0.98413,0.00,0.00,0.00
79,0.13740,0.09160,-0.15267,0.09180,-0.06812,0.99365,0.00,0.00,0.00
80,-0.10687,0.15267,-0.19847,0.09180,-0.07080,0.99414,0.00,0.00,0.00
81,-0.12977,0.15267,-0.15267,0.08691,-0.07275,0.99512,0.00,0.00,0.00
82,0.04580,0.19084,-0.09924,0.08667,-0.06885,0.98633,0.00,0.00,0.00
83,-0.01527,-0.12214,0.00763,0.08716,-0.07300,0.98535,0.00,0.00,0.00
84,-0.03817,-0.04580,-0.17557,0.08521,-0.06885,0.99194,0.00,0.00,0.00
85,0.12977,-0.06107,-0.40458,0.08521,-0.06763,0.99097,0.00,0.00,0.00
86,0.00763,-0.03053,-0.26718,0.09253,-0.07227,0.98535,0.00,0.00,0.00
87,-0.11450,-0.07634,-0.12214,0.09106,-0.06860,0.98779,0.00,0.00,0.00
88,0.00000,-0.12214,-0.19084,0.08252,-0.08032,0.98901,0.00,0.00,0.00
89,-0.29008,0.20611,-0.10687,0.08936,-0.07031,0.98242,0.00,0.00,0.00
90,-0.06107,-0.02290,-0.10687,0.08911,-0.07300,0.99292,0.00,0.00,0.00
91,-0.07634,0.09160,-0.22901,0.09204,-0.06909,0.99146,0.00,0.00,0.00
92,-0.15267,0.18321,-0.13740,0.08789,-0.06934,0.98535,0.00,0.00,0.00
93,0.00763,0.15267,-0.22901,0.08911,-0.07104,0.99438,0.00,0.00,0.00
94,0.01527,0.06107,0.02290,0.08789,-0.06763,1.00171,0.00,0.00,0.00
95,-0.00763,-0.05344,-0.07634,0.08789,-0.07129,0.98608,0.00,0.00,0.00
96,-0.10687,0.12977,-0.21374,0.09155,-0.07324,0.98535,0.00,0.00,0.00
97,0.05344,0.01527,-0.18321,0.09229,-0.07227,0.99487,0.00,0.00,0.00
98,0.12214,0.30534,-0.05344,0.09424,-0.07251,0.98120,0.00,0.00,0.00
99,0.05344,-0.06870,-0.12214,0.09424,-0.07349,0.99023,0.00,0.00,0.00
100,0.05344,-0.02290,-0.05344,0.09277,-0.07373,0.98877,0.00,0.00,0.00
101,0.09924,0.07634,-0.22137,0.09009,-0.06836,0.99243,0.00,0.00,0.00
102,0.02290,-0.19847,-0.02290,0.08911,-0.07104,0.99341,0.00,0.00,0.00
103,-0.17557,-0.12977,-0.07634,0.08789,-0.07104,0.98462,0.00,0.00,0.00
104,-0.07634,0.12977,-0.24427,0.08936,-0.07202,0.98657,0.00,0.00,0.00
105,-0.03053,-0.06870,-0.20611,0.09180,-0.07275,0.99756,0.00,0.00,0.00
106,0.06107,-0.00763,-0.15267,0.08960,-0.07056,0.99097,0.00,0.00,0.00
107,0.12977,-0.13740,-0.09924,0.09058,-0.07593,0.99316,0.00,0.00,0.00
108,-0.12977,0.10687,-0.15267,0.08667,-0.06885,0.98633,0.00,0.00,0.00
109,-0.12977,-0.06870,-0.25191,0.08960,-0.07495,0.98413,0.00,0.00,0.00
110,-0.06107,0.03053,-0.15267,0.08960,-0.07275,0.99536,0.00,0.00,0.00
111,-0.02290,-0.02290,-0.13740,0.08911,-0.07446,0.99097,0.00,0.00,0.00
112,-0.21374,0.00000,-0.25954,0.09277,-0.07080,0.98853,0.00,0.00,0.00
113,0.10687,0.11450,-0.06870,0.09521,-0.06958,0.99536,0.00,0.00,0.00
114,-0.04580,-0.04580,-0.09160,0.08838,-0.07373,0.99878,0.00,0.00,0.00
115,-0.04580,0.08397,-0.10687,0.08130,-0.06714,0.99634,0.00,0.00,0.00
116,0.09924,-0.18321,-0.32061,0.09351,-0.07495,0.99341,0.00,0.00,0.00
117,0.08397,-0.26718,-0.24427,0.08936,-0.06812,0.98267,0.00,0.00,0.00
118,0.23664,0.06107,0.00763,0.08325,-0.06787,0.99390,0.00,0.00,0.00
119,0.09160,0.03053,-0.12977,0.09644,-0.07861,0.98340,0.00,0.00,0.00
120,0.09924,-0.13740,-0.29771,0.08667,-0.07300,0.99194,0.00,0.00,0.00
121,0.04580,-0.04580,-0.16031,0.09351,-0.07373,0.99023,0.00,0.00,0.00
122,0.07634,-0.06870,-0.02290,0.09106,-0.07568,0.98853,0.00,0.00,0.00
123,-0.18321,0.00000,-0.18321,0.09302,-0.07544,0.99390,0.00,0.00,0.00
124,0.10687,-0.03817,-0.01527,0.09326,-0.07129,0.99341,0.00,0.00,0.00
125,0.07634,0.04580,-0.17557,0.09033,-0.06860,0.98145,0.00,0.00,0.00
126,-0.00763,0.12977,-0.06870,0.09229,-0.07666,0.98535,0.00,0.00,0.00
127,-0.28244,0.00000,-0.08397,0.08667,-0.07617,0.99072,0.00,0.00,0.00
128,0.01527,0.12977,0.00763,0.09473,-0.07104,0.99292,0.00,0.00,0.00
129,-0.00763,0.18321,-0.14504,0.08960,-0.07715,0.98975,0.00,0.00,0.00
130,-0.08397,-0.19847,-0.19847,0.08765,-0.07422,0.98633,0.00,0.00,0.00
131,-0.03817,-0.02290,-0.10687,0.09204,-0.07349,0.99170,0.00,0.00,0.00
132,-0.00763,-0.02290,0.01527,0.08032,-0.07837,0.98657,0.00,0.00,0.00
133,-0.06870,-0.15267,-0.06870,0.09009,-0.07129,0.99341,0.00,0.00,0.00
134,0.09160,-0.37405,-0.03053,0.09180,-0.07178,0.99927,0.00,0.00,0.00
135,0.15267,-0.02290,-0.12977,0.09033,-0.06714,0.98779,0.00,0.00,0.00
136,-0.03053,-0.03817,-0.02290,0.08960,-0.07104,0.99438,0.00,0.00,0.00
137,0.12214,-0.15267,-0.26718,0.08887,-0.06689,0.98413,0.00,0.00,0.00
138,-0.12977,-0.04580,-0.20611,0.08765,-0.07104,0.99414,0.00,0.00,0.00
139,-0.03817,-0.01527,-0.07634,0.08887,-0.06763,0.98877,0.00,0.00,0.00
140,-0.08397,-0.02290,-0.01527,0.09009,-0.07227,0.98071,0.00,0.00,0.00
141,-0.01527,-0.20611,0.13740,0.09180,-0.07593,0.99316,0.00,0.00,0.00
142,0.01527,0.06870,-0.03817,0.09277,-0.07056,0.99072,0.00,0.00,0.00
143,-0.17557,0.06107,-0.25191,0.08813,-0.07764,0.98755,0.00,0.00,0.00
144,0.19847,0.15267,-0.18321,0.09033,-0.07617,0.99365,0.00,0.00,0.00
145,0.07634,-0.06107,-0.02290,0.09106,-0.07007,0.98901,0.00,0.00,0.00
146,0.00763,0.00763,-0.14504,0.09668,-0.07495,0.98804,0.00,0.00,0.00
147,0.04580,0.06107,0.00000,0.09106,-0.07471,0.99341,0.00,0.00,0.00
148,-0.00763,-0.03053,-0.08397,0.09033,-0.07471,0.99268,0.00,0.00,0.00
149,-0.12977,0.10687,-0.07634,0.09082,-0.07739,0.99316,0.00,0.00,0.00
150,-0.09924,0.04580,-0.14504,0.08813,-0.07251,0.98486,0.00,0.00,0.00
151,-0.06870,0.00000,-0.13740,0.08911,-0.06836,0.99243,0.00,0.00,0.00
152,-0.05344,0.25954,-0.16031,0.08691,-0.07446,0.98560,0.00,0.00,0.00
153,-0.08397,0.02290,-0.06870,0.09033,-0.07227,0.99634,0.00,0.00,0.00
154,-0.19084,0.11450,-0.19847,0.09033,-0.07080,0.98462,0.00,0.00,0.00
155,-0.14504,-0.09160,-0.09924,0.08740,-0.07153,0.98828,0.00,0.00,0.00
156,-0.06107,0.17557,-0.12214,0.09399,-0.06909,0.98975,0.00,0.00,0.00
157,-0.09924,-0.12214,-0.21374,0.09131,-0.06763,0.98511,0.00,0.00,0.00
158,-0.03053,-0.03053,-0.09160,0.09180,-0.07495,0.99268,0.00,0.00,0.00
159,0.03053,0.24427,-0.04580,0.09082,-0.07324,0.98999,0.00,0.00,0.00
160,-0.16794,0.10687,-0.00763,0.08911,-0.07446,0.99194,0.00,0.00,0.00
161,-0.19084,-0.03053,-0.10687,0.09180,-0.07495,0.99951,0.00,0.00,0.00
162,0.06870,-0.05344,-0.07634,0.08936,-0.07422,0.98853,0.00,0.00,0.00
163,-0.12214,0.05344,-0.19084,0.08960,-0.07422,0.98462,0.00,0.00,0.00
164,-0.08397,-0.01527,-0.06870,0.08887,-0.06909,0.99023,0.00,0.00,0.00
165,-0.10687,0.25954,-0.32061,0.08569,-0.08032,0.99121,0.00,0.00,0.00
166,-0.05344,0.07634,-0.03817,0.09180,-0.07104,0.99854,0.00,0.00,0.00
167,0.03817,0.14504,-0.15267,0.08447,-0.06812,0.98853,0.00,0.00,0.00
168,-0.11450,0.14504,-0.28244,0.08936,-0.07642,0.98535,0.00,0.00,0.00
169,-0.15267,-0.05344,-0.08397,0.09131,-0.07056,0.98975,0.00,0.00,0.00
170,0.03817,-0.03817,-0.08397,0.09058,-0.07520,0.98926,0.00,0.00,0.00
171,0.16794,0.19847,0.01527,0.09277,-0.07300,0.98413,0.00,0.00,0.00
172,-0.03053,0.02290,-0.22901,0.08740,-0.07056,0.98682,0.00,0.00,0.00
173,0.07634,0.12214,-0.09160,0.09424,-0.07104,0.99023,0.00,0.00,0.00
174,0.06107,0.18321,-0.25954,0.09155,-0.07153,0.99072,0.00,0.00,0.00
175,-0.16031,0.08397,-0.09924,0.08740,-0.07007,0.98853,0.00,0.00,0.00
176,-0.16794,0.09160,-0.03817,0.09204,-0.07080,0.98779,0.00,0.00,0.00
177,-0.23664,0.20611,-0.03817,0.09277,-0.07251,0.99438,0.00,0.00,0.00
178,0.09160,0.06870,-0.21374,0.08398,-0.07373,0.99243,0.00,0.00,0.00
179,0.14504,0.21374,-0.01527,0.08911,-0.07202,0.99390,0.00,0.00,0.00
180,-0.12977,-0.03053,-0.19847,0.08691,-0.06689,0.98755,0.00,0.00,0.00
181,0.11450,0.23664,-0.07634,0.08765,-0.07178,0.98682,0.00,0.00,0.00
182,-0.03817,0.18321,-0.01527,0.09229,-0.07080,0.99194,0.00,0.00,0.00
183,0.16794,-0.03053,0.12214,0.09326,-0.06934,0.98755,0.00,0.00,0.00
184,-0.00763,0.09924,-0.17557,0.09277,-0.06860,0.99438,0.00,0.00,0.00
185,-0.00763,0.04580,-0.06107,0.08936,-0.07031,0.98682,0.00,0.00,0.00
186,0.17557,0.01527,-0.19847,0.08813,-0.07227,0.99072,0.00,0.00,0.00
187,-0.03053,0.10687,-0.19847,0.08716,-0.07275,0.99390,0.00,0.00,0.00
188,-0.19847,-0.02290,-0.12214,0.08203,-0.07397,0.98804,0.00,0.00,0.00
189,0.01527,0.05344,0.00763,0.08667,-0.07886,0.98706,0.00,0.00,0.00
190,-0.29008,0.06107,-0.10687,0.09131,-0.06738,0.98999,0.00,0.00,0.00
191,-0.02290,0.05344,-0.17557,0.08838,-0.07642,0.99023,0.00,0.00,0.00
192,-0.14504,0.02290,-0.16794,0.08643,-0.07495,0.99219,0.00,0.00,0.00
193,0.04580,-0.16794,-0.30534,0.08521,-0.07300,0.99170,0.00,0.00,0.00
194,0.00000,0.21374,-0.19084,0.08667,-0.08301,0.98682,0.00,0.00,0.00
195,-0.16031,0.03817,-0.03053,0.08960,-0.07007,0.98389,0.00,0.00,0.00
196,-0.08397,0.23664,-0.01527,0.08960,-0.07495,0.98804,0.00,0.00,0.00
197,0.10687,0.11450,-0.07634,0.08716,-0.06934,0.98999,0.00,0.00,0.00
198,-0.16031,0.00763,-0.13740,0.08936,-0.07568,1.00073,0.00,0.00,0.00
199,-0.06107,-0.17557,-0.25191,0.08716,-0.07007,0.99146,0.00,0.00,0.00
200,-0.15267,0.06870,-0.17557,0.08765,-0.07153,0.99268,0.00,0.00,0.00
201,-0.11450,0.03817,-0.06107,0.09180,-0.07104,0.98804,0.00,0.00,0.00
202,-0.28244,0.11450,-0.25191,0.09424,-0.07153,0.98315,0.00,0.00,0.00
203,-0.14504,0.13740,-0.25954,0.08936,-0.07568,0.99829,0.00,0.00,0.00
204,-0.22137,0.16794,-0.10687,0.09033,-0.07300,0.99097,0.00,0.00,0.00
205,-0.22901,-0.00763,-0.19084,0.09424,-0.07324,0.98828,0.00,0.00,0.00
206,-0.12214,0.12977,-0.25191,0.09106,-0.06958,0.98535,0.00,0.00,0.00
207,-0.18321,0.19847,-0.22137,0.08594,-0.07104,0.99414,0.00,0.00,0.00
208,-0.00763,0.12977,-0.02290,0.08911,-0.07104,0.99341,0.00,0.00,0.00
209,0.08397,-0.09924,-0.19084,0.08740,-0.07178,0.98511,0.00,0.00,0.00
210,0.04580,-0.00763,-0.05344,0.09204,-0.07690,0.98560,0.00,0.00,0.00
211,-0.19847,-0.09924,-0.21374,0.08887,-0.07324,0.99609,0.00,0.00,0.00
212,-0.03053,0.12214,-0.33588,0.09155,-0.07690,0.99609,0.00,0.00,0.00
213,-0.12977,0.09924,-0.06107,0.09253,-0.07251,0.99194,0.00,0.00,0.00
214,-0.03817,0.16031,-0.15267,0.09351,-0.06934,0.99316,0.00,0.00,0.00
215,0.12214,-0.11450,-0.13740,0.08398,-0.07202,0.98950,0.00,0.00,0.00
216,-0.14504,0.22137,-0.11450,0.08472,-0.07568,0.99121,0.00,0.00,0.00
217,-0.07634,0.06107,-0.10687,0.09155,-0.07324,0.98218,0.00,0.00,0.00
218,-0.10687,-0.06107,-0.20611,0.09326,-0.07153,0.99658,0.00,0.00,0.00
219,-0.22901,-0.15267,-0.29008,0.09302,-0.06812,0.99585,0.00,0.00,0.00
220,0.01527,0.12214,-0.06107,0.09253,-0.07129,0.99048,0.00,0.00,0.00
221,-0.03817,0.12214,-0.21374,0.08862,-0.07397,0.99902,0.00,0.00,0.00
222,-0.16031,0.16031,-0.05344,0.08740,-0.06958,0.99536,0.00,0.00,0.00
223,-0.08397,0.12977,-0.08397,0.08960,-0.07300,0.98389,0.00,0.00,0.00
224,-0.03053,0.18321,-0.23664,0.09033,-0.07910,1.00171,0.00,0.00,0.00
225,-0.00763,-0.00763,-0.11450,0.08618,-0.07129,0.99243,0.00,0.00,0.00
226,0.08397,0.09160,-0.19084,0.09644,-0.06958,0.98828,0.00,0.00,0.00
227,0.02290,0.00000,-0.10687,0.08813,-0.07178,0.98218,0.00,0.00,0.00
228,-0.12977,0.21374,-0.08397,0.08765,-0.06616,0.99927,0.00,0.00,0.00
229,-0.10687,0.05344,-0.26718,0.08862,-0.07300,0.98901,0.00,0.00,0.00
230,0.06107,-0.18321,-0.15267,0.08862,-0.07251,0.98657,0.00,0.00,0.00
231,0.06870,-0.02290,-0.15267,0.09131,-0.07227,0.99072,0.00,0.00,0.00
232,-0.30534,0.00763,-0.19847,0.08130,-0.07324,0.99512,0.00,0.00,0.00
233,0.02290,-0.07634,-0.16031,0.08984,-0.07373,0.99292,0.00,0.00,0.00
234,-0.25191,0.02290,-0.16031,0.08862,-0.07471,0.99536,0.00,0.00,0.00
235,-0.02290,-0.00763,-0.07634,0.08984,-0.07227,0.98437,0.00,0.00,0.00
236,-0.06870,0.05344,-0.21374,0.08765,-0.07935,0.99097,0.00,0.00,0.00
237,-0.04580,0.12977,-0.10687,0.09131,-0.07227,0.98535,0.00,0.00,0.00
238,0.22901,0.11450,0.03817,0.09131,-0.07764,0.99023,0.00,0.00,0.00
239,0.09924,0.00763,-0.06107,0.08716,-0.07690,0.99512,0.00,0.00,0.00
240,-0.09160,0.12977,-0.29008,0.09180,-0.07153,0.99438,0.00,0.00,0.00
241,-0.16031,0.22137,-0.06870,0.09229,-0.07202,0.99634,0.00,0.00,0.00
242,-0.01527,0.22901,-0.02290,0.09277,-0.07227,0.98364,0.00,0.00,0.00
243,-0.01527,0.03053,-0.13740,0.08936,-0.07178,0.98608,0.00,0.00,0.00
244,-0.06870,0.02290,-0.15267,0.08789,-0.07397,0.99121,0.00,0.00,0.00
245,0.03053,0.03817,-0.19847,0.09106,-0.07227,0.99438,0.00,0.00,0.00
246,0.17557,0.01527,0.03053,0.09033,-0.06836,1.00171,0.00,0.00,0.00
247,0.12977,-0.03817,-0.18321,0.09351,-0.07373,0.99561,0.00,0.00,0.00
248,0.06107,-0.11450,-0.18321,0.08643,-0.06836,0.98657,0.00,0.00,0.00
249,0.06107,0.03053,-0.06870,0.08789,-0.06958,0.99390,0.00,0.00,0.00
250,-0.00763,0.12977,-0.09160,0.08496,-0.07349,0.98560,0.00,0.00,0.00
251,0.05344,0.06107,-0.22901,0.08813,-0.07056,0.98682,0.00,0.00,0.00
252,-0.03817,0.09924,-0.10687,0.09106,-0.07471,0.99048,0.00,0.00,0.00
253,0.08397,0.05344,-0.08397,0.09155,-0.07422,0.98413,0.00,0.00,0.00
254,0.08397,-0.05344,-0.06107,0.08936,-0.06860,0.98828,0.00,0.00,0.00
255,-0.29008,0.01527,-0.24427,0.09082,-0.07788,0.98486,0.00,0.00,0.00
256,0.06107,0.10687,-0.11450,0.09033,-0.07153,0.99780,0.00,0.00,0.00
257,-0.03817,0.18321,-0.15267,0.08691,-0.07300,0.99487,0.00,0.00,0.00
258,-0.16794,0.12214,-0.20611,0.08716,-0.07397,0.99219,0.00,0.00,0.00
259,0.11450,0.06870,-0.19084,0.09375,-0.07031,0.99219,0.00,0.00,0.00
260,-0.07634,-0.10687,-0.00763,0.08594,-0.07275,0.98828,0.00,0.00,0.00
261,-0.06107,0.19847,-0.18321,0.08984,-0.07153,0.98901,0.00,0.00,0.00
262,0.00763,-0.25954,-0.06107,0.08911,-0.07544,0.98315,0.00,0.00,0.00
263,0.00763,0.06107,-0.25954,0.09180,-0.06982,0.98486,0.00,0.00,0.00
264,0.09924,-0.07634,-0.00763,0.09131,-0.07202,0.99292,0.00,0.00,0.00
265,0.00000,0.00000,-0.11450,0.08813,-0.06665,0.99463,0.00,0.00,0.00
266,-0.11450,0.16031,0.02290,0.09253,-0.07300,0.99756,0.00,0.00,0.00
267,-0.06107,0.15267,-0.28244,0.09180,-0.07764,0.98633,0.00,0.00,0.00
268,0.07634,0.16031,-0.14504,0.09253,-0.07349,0.99072,0.00,0.00,0.00
269,0.06870,-0.07634,-0.16031,0.08984,-0.07593,0.99170,0.00,0.00,0.00
270,0.11450,-0.03817,-0.25954,0.08813,-0.07104,0.99780,0.00,0.00,0.00
271,-0.28244,-0.30534,-0.30534,0.08765,-0.07129,0.98389,0.00,0.00,0.00
272,-0.12977,0.19847,-0.24427,0.08862,-0.06738,0.98975,0.00,0.00,0.00
273,-0.06107,-0.15267,-0.03817,0.08813,-0.07349,0.99561,0.00,0.00,0.00
274,-0.09160,0.06870,-0.20611,0.08862,-0.06909,0.98730,0.00,0.00,0.00
275,-0.12214,-0.16031,-0.15267,0.08862,-0.07349,0.98804,0.00,0.00,0.00
276,-0.21374,0.00763,-0.09160,0.09106,-0.06689,0.99292,0.00,0.00,0.00
277,-0.04580,0.22137,0.00763,0.09351,-0.07837,0.98804,0.00,0.00,0.00
278,-0.02290,0.27481,-0.22137,0.08765,-0.07324,0.99292,0.00,0.00,0.00
279,-0.09924,0.21374,-0.00763,0.09058,-0.06982,0.98169,0.00,0.00,0.00
280,-0.13740,0.01527,-0.21374,0.09326,-0.07349,0.98560,0.00,0.00,0.00
281,-0.02290,0.01527,-0.04580,0.08545,-0.07031,0.99194,0.00,0.00,0.00
282,-0.15267,-0.03817,0.03053,0.08911,-0.07275,0.99707,0.00,0.00,0.00
283,0.06870,0.17557,-0.29771,0.08716,-0.07617,0.97949,0.00,0.00,0.00
284,-0.19084,0.19847,-0.06107,0.08960,-0.06860,0.98853,0.00,0.00,0.00
285,0.00763,0.02290,-0.11450,0.09204,-0.06714,0.99121,0.00,0.00,0.00
286,0.03817,0.01527,-0.02290,0.08325,-0.07446,0.99243,0.00,0.00,0.00
287,0.16031,0.06870,-0.12977,0.08740,-0.07080,0.98682,0.00,0.00,0.00
288,0.07634,0.02290,-0.00763,0.08765,-0.07178,0.99561,0.00,0.00,0.00
289,0.06107,0.09924,-0.18321,0.08691,-0.07202,1.00195,0.00,0.00,0.00
290,-0.09160,0.21374,-0.06107,0.08765,-0.07349,0.98633,0.00,0.00,0.00
291,-0.12977,0.11450,-0.20611,0.08521,-0.07202,0.98804,0.00,0.00,0.00
292,-0.31298,-0.00763,-0.09160,0.08569,-0.07153,0.99878,0.00,0.00,0.00
293,-0.12977,0.19084,-0.09924,0.09253,-0.07227,0.98755,0.00,0.00,0.00
294,-0.12214,-0.06107,-0.04580,0.08643,-0.07617,0.99390,0.00,0.00,0.00
295,-0.06870,0.08397,-0.35115,0.09473,-0.07715,0.98950,0.00,0.00,0.00
296,-0.19084,-0.04580,-0.20611,0.08716,-0.07495,0.99390,0.00,0.00,0.00
297,-0.03817,-0.12977,-0.03053,0.08813,-0.06641,0.99463,0.00,0.00,0.00
298,-0.06870,-0.14504,-0.18321,0.08813,-0.07837,0.98535,0.00,0.00,0.00
299,-0.04580,0.08397,-0.11450,0.09473,-0.08057,0.98877,0.00,0.00,0.00
300,-0.15267,-0.09160,-0.07634,0.09009,-0.07104,0.99072,0.00,0.00,0.00
301,0.09924,-0.24427,-0.08397,0.09546,-0.07153,0.99243,0.00,0.00,0.00
302,-0.02290,0.12977,-0.12214,0.09302,-0.07275,0.98730,0.00,0.00,0.00
303,-0.00763,-0.14504,-0.13740,0.08984,-0.07568,0.98511,0.00,0.00,0.00
304,-0.03817,-0.03053,-0.18321,0.08691,-0.06592,0.99146,0.00,0.00,0.00
305,-0.00763,0.03817,-0.22901,0.08765,-0.06738,0.98437,0.00,0.00,0.00
306,-0.05344,-0.00763,-0.14504,0.09302,-0.06836,0.98608,0.00,0.00,0.00
307,0.17557,0.12977,-0.16794,0.08521,-0.06763,0.98755,0.00,0.00,0.00
308,0.14504,0.02290,-0.18321,0.08765,-0.07178,0.99780,0.00,0.00,0.00
309,0.03053,0.09924,0.03817,0.08545,-0.07300,0.99609,0.00,0.00,0.00
310,-0.11450,-0.16031,-0.09160,0.08423,-0.07593,0.99243,0.00,0.00,0.00
311,0.09924,-0.06107,-0.09924,0.09033,-0.06738,0.99072,0.00,0.00,0.00
312,0.03817,-0.12214,-0.09160,0.09229,-0.07275,0.99146,0.00,0.00,0.00
313,-0.19084,-0.21374,-0.03053,0.08765,-0.07495,0.98779,0.00,0.00,0.00
314,0.17557,-0.01527,-0.01527,0.08643,-0.07397,0.99487,0.00,0.00,0.00
315,-0.12977,-0.01527,-0.22901,0.08643,-0.06836,0.99316,0.00,0.00,0.00
316,0.03053,0.04580,-0.04580,0.08716,-0.07349,0.99170,0.00,0.00,0.00
317,0.02290,0.15267,-0.03053,0.09082,-0.07178,0.98682,0.00,0.00,0.00
318,-0.18321,-0.07634,-0.00763,0.08472,-0.06763,0.98999,0.00,0.00,0.00
319,-0.09160,0.19847,-0.06870,0.08911,-0.07446,0.98877,0.00,0.00,0.00
320,-0.14504,-0.27481,0.00763,0.08740,-0.07129,0.98608,0.00,0.00,0.00
321,0.16031,0.06107,-0.04580,0.08911,-0.07178,0.99414,0.00,0.00,0.00
322,-0.03817,0.07634,-0.05344,0.09473,-0.07642,0.99316,0.00,0.00,0.00
323,0.08397,0.09924,-0.06107,0.09155,-0.07056,0.99463,0.00,0.00,0.00
324,-0.00763,-0.19084,-0.06107,0.08618,-0.07275,0.99365,0.00,0.00,0.00
325,-0.09924,-0.17557,-0.10687,0.08911,-0.07349,0.98755,0.00,0.00,0.00
326,0.14504,0.06107,-0.17557,0.08887,-0.07300,0.98340,0.00,0.00,0.00
327,0.08397,-0.04580,-0.10687,0.09204,-0.06763,0.98096,0.00,0.00,0.00
328,0.05344,-0.09924,-0.29008,0.09180,-0.06567,0.98779,0.00,0.00,0.00
329,0.08397,0.10687,-0.24427,0.09131,-0.07349,0.99097,0.00,0.00,0.00
330,-0.10687,-0.09160,-0.20611,0.08643,-0.06958,0.99365,0.00,0.00,0.00
331,0.13740,-0.03817,-0.18321,0.08765,-0.07788,0.99121,0.00,0.00,0.00
332,0.04580,-0.07634,-0.29008,0.08838,-0.06299,0.99292,0.00,0.00,0.00
333,0.05344,0.25954,-0.12214,0.08813,-0.07422,0.99512,0.00,0.00,0.00
334,-0.03053,-0.06107,-0.09924,0.09131,-0.07275,0.98755,0.00,0.00,0.00
335,0.05344,-0.06870,-0.12214,0.08936,-0.06787,0.99414,0.00,0.00,0.00
336,0.06870,-0.00763,-0.21374,0.08862,-0.07520,0.98584,0.00,0.00,0.00
337,-0.21374,0.00000,-0.09160,0.08276,-0.08008,0.99805,0.00,0.00,0.00
338,0.09160,-0.04580,-0.06107,0.08765,-0.07056,0.98828,0.00,0.00,0.00
339,0.03053,0.00763,-0.10687,0.09570,-0.07031,0.98828,0.00,0.00,0.00
340,-0.18321,0.09924,-0.12977,0.09155,-0.06812,0.99219,0.00,0.00,0.00
341,-0.07634,-0.02290,-0.18321,0.08716,-0.07056,0.99414,0.00,0.00,0.00
342,0.03817,0.03817,-0.18321,0.09033,-0.07153,0.99048,0.00,0.00,0.00
343,0.07634,0.10687,-0.02290,0.09326,-0.07690,0.99805,0.00,0.00,0.00
344,-0.06107,0.26718,0.03817,0.08936,-0.07446,0.98804,0.00,0.00,0.00
345,-0.15267,0.19084,-0.12977,0.09302,-0.07495,0.99243,0.00,0.00,0.00
346,-0.02290,-0.04580,-0.09160,0.08667,-0.07617,0.99390,0.00,0.00,0.00
347,-0.15267,0.22137,-0.22901,0.08643,-0.07275,0.99023,0.00,0.00,0.00
348,0.00000,0.14504,-0.32824,0.08911,-0.07422,0.98999,0.00,0.00,0.00
349,-0.09160,0.08397,-0.23664,0.09106,-0.07373,0.99634,0.00,0.00,0.00
350,-0.03817,-0.08397,-0.25954,0.08984,-0.06934,0.98535,0.00,0.00,0.00
351,-0.02290,0.06870,-0.04580,0.08740,-0.06445,0.99268,0.00,0.00,0.00
352,-0.06870,-0.06870,-0.14504,0.08740,-0.07495,0.99316,0.00,0.00,0.00
353,-0.10687,0.16794,0.00763,0.08911,-0.07178,0.98730,0.00,0.00,0.00
354,0.08397,0.05344,-0.12977,0.09326,-0.07422,0.99561,0.00,0.00,0.00
355,0.00000,0.03053,-0.26718,0.09180,-0.06787,0.98828,0.00,0.00,0.00
356,0.04580,-0.19084,-0.03053,0.09131,-0.07642,0.99365,0.00,0.00,0.00
357,-0.15267,0.00763,-0.29771,0.09448,-0.06738,0.98608,0.00,0.00,0.00
358,-0.05344,0.12977,-0.29008,0.08618,-0.07104,0.99390,0.00,0.00,0.00
359,-0.10687,0.06107,-0.19084,0.08691,-0.07202,0.98828,0.00,0.00,0.00
360,0.02290,-0.02290,-0.06107,0.08911,-0.07471,0.99097,0.00,0.00,0.00
361,0.03053,0.10687,-0.03053,0.08911,-0.06689,0.98828,0.00,0.00,0.00
362,0.11450,0.01527,-0.29008,0.08472,-0.07056,0.98926,0.00,0.00,0.00
363,-0.04580,-0.16794,-0.13740,0.09033,-0.06982,0.98730,0.00,0.00,0.00
364,0.02290,0.02290,-0.00763,0.08911,-0.06982,0.99023,0.00,0.00,0.00
365,-0.08397,0.17557,-0.16031,0.08862,-0.07544,0.98779,0.00,0.00,0.00
366,0.01527,-0.00763,-0.35878,0.09326,-0.07422,0.97974,0.00,0.00,0.00
367,-0.16031,0.00763,-0.15267,0.09204,-0.07056,0.98535,0.00,0.00,0.00
368,-0.03053,-0.06107,-0.08397,0.09229,-0.07080,0.98804,0.00,0.00,0.00
369,0.18321,0.09924,-0.19847,0.08716,-0.06909,0.99390,0.00,0.00,0.00
370,0.19847,-0.01527,-0.22137,0.09229,-0.07227,0.98926,0.00,0.00,0.00
371,-0.00763,0.07634,-0.24427,0.08862,-0.07227,0.99487,0.00,0.00,0.00
372,-0.10687,0.06107,-0.27481,0.08496,-0.07324,0.98633,0.00,0.00,0.00
373,0.03053,-0.00763,-0.03053,0.09082,-0.07031,0.98755,0.00,0.00,0.00
374,-0.14504,0.07634,-0.27481,0.09839,-0.07178,0.98901,0.00,0.00,0.00
375,0.06870,-0.15267,0.01527,0.08643,-0.07104,0.99048,0.00,0.00,0.00
376,-0.01527,0.04580,-0.19847,0.08984,-0.06128,0.98999,0.00,0.00,0.00
377,0.09924,0.06107,-0.25954,0.08545,-0.07324,0.98267,0.00,0.00,0.00
378,0.01527,0.03817,-0.21374,0.09058,-0.07153,0.99023,0.00,0.00,0.00
379,0.10687,0.06107,-0.09160,0.08594,-0.07397,0.98486,0.00,0.00,0.00
380,0.06870,0.04580,-0.16794,0.09473,-0.07080,0.99243,0.00,0.00,0.00
381,-0.04580,-0.00763,-0.07634,0.09277,-0.07422,0.99658,0.00,0.00,0.00
382,-0.03817,-0.09160,-0.18321,0.09497,-0.07227,0.99536,0.00,0.00,0.00
383,0.03053,0.02290,-0.12214,0.09131,-0.07764,0.99634,0.00,0.00,0.00
384,0.09924,0.23664,-0.17557,0.08765,-0.07471,0.98975,0.00,0.00,0.00
385,-0.09160,0.10687,-0.10687,0.08521,-0.07178,0.99512,0.00,0.00,0.00
386,-0.07634,-0.00763,-0.24427,0.09253,-0.07642,0.99927,0.00,0.00,0.00
387,0.00763,-0.00763,-0.11450,0.09033,-0.07007,0.98999,0.00,0.00,0.00
388,0.11450,0.09924,-0.04580,0.09473,-0.07544,0.99072,0.00,0.00,0.00
389,-0.03053,0.08397,-0.19847,0.09009,-0.07080,0.98608,0.00,0.00,0.00
390,-0.09924,0.10687,0.02290,0.08398,-0.07422,0.99072,0.00,0.00,0.00
391,-0.06107,-0.09160,-0.12214,0.09033,-0.07153,0.99219,0.00,0.00,0.00
392,0.00000,0.12214,-0.19084,0.08765,-0.07300,0.98755,0.00,0.00,0.00
393,-0.15267,-0.01527,-0.09924,0.09131,-0.07739,0.99561,0.00,0.00,0.00
394,-0.25191,0.03053,-0.27481,0.09058,-0.07520,0.98315,0.00,0.00,0.00
395,-0.16031,0.15267,-0.21374,0.09375,-0.07153,0.99243,0.00,0.00,0.00
396,-0.11450,-0.19847,-0.17557,0.08691,-0.07104,0.98975,0.00,0.00,0.00
397,-0.16031,0.13740,-0.14504,0.09082,-0.07495,0.99121,0.00,0.00,0.00
398,-0.03053,-0.39695,-0.17557,0.09351,-0.07178,0.98779,0.00,0.00,0.00
399,-0.02290,-0.14504,-0.09924,0.08618,-0.06982,0.98657,0.00,0.00,0.00
400,-0.11450,-0.08397,-0.15267,0.09448,-0.07275,0.98584,0.00,0.00,0.00
401,-0.02290,-0.19084,-0.09924,0.09180,-0.06934,0.99683,0.00,0.00,0.00
402,-0.21374,-0.20611,0.08397,0.08984,-0.07495,0.98828,0.00,0.00,0.00
403,0.11450,0.01527,-0.17557,0.09082,-0.07886,0.98535,0.00,0.00,0.00
404,0.20611,0.23664,-0.19847,0.08960,-0.07617,0.98828,0.00,0.00,0.00
405,0.20611,0.61069,-0.23664,0.10620,-0.05859,0.97852,0.00,0.00,0.00
406,-0.17557,-0.74809,-0.32061,0.07568,-0.09155,1.01953,0.00,0.00,0.00
407,0.06107,0.88550,-0.12214,0.09814,-0.06152,0.97876,0.00,0.00,0.00
408,-0.19847,-0.34351,-0.05344,0.08838,-0.07446,0.99048,0.00,0.00,0.00
409,-0.03817,0.32824,-0.17557,0.08569,-0.07397,0.98682,0.00,0.00,0.00
410,-0.08397,0.02290,-0.02290,0.08911,-0.06885,0.99243,0.00,0.00,0.00
411,-0.24427,0.44275,-0.26718,0.09741,-0.06934,0.99194,0.00,0.00,0.00
412,-0.15267,0.13740,-0.12977,0.08179,-0.06836,0.99463,0.00,0.00,0.00
413,-0.22901,0.27481,-0.17557,0.08569,-0.07910,0.98853,0.00,0.00,0.00
414,-0.13740,0.27481,-0.22901,0.08008,-0.07495,0.99243,0.00,0.00,0.00
415,-0.27481,0.07634,0.09160,0.08887,-0.06909,0.99170,0.00,0.00,0.00
416,-0.19084,-0.15267,-0.24427,0.09106,-0.07275,0.99707,0.00,0.00,0.00
417,-0.15267,-0.11450,-0.19847,0.08960,-0.07251,0.99512,0.00,0.00,0.00
418,-0.11450,0.02290,-0.26718,0.09302,-0.07690,0.99438,0.00,0.00,0.00
419,-0.22137,-0.04580,-0.20611,0.08740,-0.07739,0.98730,0.00,0.00,0.00
420,-0.11450,0.09160,-0.17557,0.08716,-0.06909,0.99854,0.00,0.00,0.00
421,0.00763,-0.07634,-0.06870,0.09399,-0.07349,0.99121,0.00,0.00,0.00
422,0.00763,0.06870,-0.26718,0.09253,-0.07153,0.98975,0.00,0.00,0.00
423,-0.06107,0.12214,0.02290,0.08325,-0.07007,0.99365,0.00,0.00,0.00
424,-0.16794,0.32061,-0.05344,0.08643,-0.07397,0.99512,0.00,0.00,0.00
425,-0.12214,0.20611,-0.13740,0.08887,-0.07056,0.99365,0.00,0.00,0.00
426,-0.08397,0.26718,-0.12214,0.08765,-0.07397,0.99194,0.00,0.00,0.00
427,-0.16794,0.35878,-0.00763,0.09131,-0.07666,0.98755,0.00,0.00,0.00
428,0.08397,0.30534,-0.16794,0.08838,-0.07568,0.99146,0.00,0.00,0.00
429,-0.11450,-0.16031,-0.18321,0.08594,-0.06763,0.99072,0.00,0.00,0.00
430,0.03053,0.18321,-0.05344,0.08984,-0.06812,0.99243,0.00,0.00,0.00
431,0.03053,-0.13740,-0.16031,0.08716,-0.07593,0.99219,0.00,0.00,0.00
432,0.19847,0.22901,-0.12214,0.08691,-0.06909,0.99902,0.00,0.00,0.00
433,0.09924,-0.01527,-0.25954,0.09375,-0.07349,0.98730,0.00,0.00,0.00
434,0.09160,0.07634,-0.13740,0.09082,-0.07520,0.98633,0.00,0.00,0.00
435,0.01527,-0.09160,-0.12214,0.08545,-0.07251,0.98853,0.00,0.00,0.00
436,0.11450,-0.10687,-0.02290,0.07861,-0.07349,0.98706,0.00,0.00,0.00
437,-0.07634,-0.05344,-0.00763,0.08252,-0.07178,0.99048,0.00,0.00,0.00
438,0.25191,-0.28244,-0.07634,0.09131,-0.07690,0.98535,0.00,0.00,0.00
439,0.25954,-0.16794,-0.10687,0.08667,-0.07617,0.99878,0.00,0.00,0.00
440,0.29008,0.10687,-0.13740,0.09351,-0.07520,0.98730,0.00,0.00,0.00
441,0.23664,-0.17557,-0.25954,0.08765,-0.07495,0.98437,0.00,0.00,0.00
442,0.30534,-0.24427,-0.08397,0.08911,-0.07129,0.98975,0.00,0.00,0.00
443,0.01527,-0.11450,-0.09160,0.08911,-0.07422,0.99512,0.00,0.00,0.00
444,0.06870,-0.03053,-0.25954,0.09424,-0.06909,0.99365,0.00,0.00,0.00
445,0.36641,-0.02290,-0.00763,0.08423,-0.06860,0.98853,0.00,0.00,0.00
446,0.29771,0.01527,-0.12977,0.09204,-0.07837,0.99292,0.00,0.00,0.00
447,0.03053,0.14504,-0.14504,0.09644,-0.07568,0.98730,0.00,0.00,0.00
448,0.23664,0.07634,-0.04580,0.08911,-0.06934,0.99146,0.00,0.00,0.00
449,0.12214,-0.00763,-0.06107,0.08911,-0.07349,0.99194,0.00,0.00,0.00
450,0.03817,-0.09160,-0.12977,0.08960,-0.07373,0.98560,0.00,0.00,0.00
451,0.06870,0.06107,0.09924,0.08960,-0.07544,0.99756,0.00,0.00,0.00
452,0.03817,-0.06870,-0.09924,0.08521,-0.07617,0.99316,0.00,0.00,0.00
453,0.22901,0.12214,-0.16794,0.09009,-0.06592,0.99609,0.00,0.00,0.00
454,0.17557,-0.21374,-0.09924,0.09180,-0.07153,0.98950,0.00,0.00,0.00
455,0.26718,-0.15267,-0.21374,0.08765,-0.07178,1.00024,0.00,0.00,0.00
456,0.29771,-0.16794,-0.10687,0.08984,-0.06860,0.98975,0.00,0.00,0.00
457,0.37405,0.00763,-0.06870,0.08740,-0.08081,0.99414,0.00,0.00,0.00
458,0.22901,-0.17557,-0.15267,0.09131,-0.07593,0.99023,0.00,0.00,0.00
459,0.50382,-0.32061,0.13740,0.09253,-0.07349,0.98511,0.00,0.00,0.00
460,0.37405,-0.06870,-0.09160,0.09253,-0.07324,0.98389,0.00,0.00,0.00
461,0.45802,-0.48855,-0.05344,0.09009,-0.06885,0.99951,0.00,0.00,0.00
462,0.32824,-0.14504,-0.01527,0.09644,-0.06763,0.98584,0.00,0.00,0.00
463,0.32061,-0.17557,-0.28244,0.08789,-0.06201,0.98926,0.00,0.00,0.00
464,0.02290,0.02290,-0.12977,0.08521,-0.08423,0.99707,0.00,0.00,0.00
465,0.51908,-0.54962,-0.09924,0.09790,-0.06372,0.97510,0.00,0.00,0.00
466,0.16031,-0.19847,-0.09160,0.08691,-0.07324,0.99561,0.00,0.00,0.00
467,0.35878,-0.11450,-0.08397,0.09399,-0.07275,0.98877,0.00,0.00,0.00
468,0.43511,0.12977,-0.16031,0.08545,-0.07178,0.98975,0.00,0.00,0.00
469,0.11450,0.00763,0.05344,0.08765,-0.07495,0.99292,0.00,0.00,0.00
470,-0.07634,0.03053,-0.09160,0.08496,-0.07080,0.98853,0.00,0.00,0.00
471,0.20611,-0.16794,-0.07634,0.08667,-0.06689,0.98291,0.00,0.00,0.00
472,0.13740,-0.09924,-0.22901,0.08984,-0.07007,0.99097,0.00,0.00,0.00
473,0.21374,-0.16031,-0.15267,0.09546,-0.07129,0.99316,0.00,0.00,0.00
474,0.12214,0.11450,-0.12214,0.08936,-0.06714,0.99780,0.00,0.00,0.00
475,0.37405,-0.08397,-0.11450,0.08813,-0.06812,0.99585,0.00,0.00,0.00
476,0.14504,0.06870,-0.28244,0.09058,-0.07373,0.98584,0.00,0.00,0.00
477,0.25191,0.02290,-0.14504,0.08716,-0.07153,0.98730,0.00,0.00,0.00
478,0.19847,0.22137,-0.14504,0.08521,-0.06787,0.99072,0.00,0.00,0.00
479,0.24427,-0.09160,-0.10687,0.08667,-0.07446,0.99561,0.00,0.00,0.00
480,0.17557,-0.03817,-0.14504,0.09253,-0.07178,0.98486,0.00,0.00,0.00
481,0.12214,-0.10687,-0.19847,0.08496,-0.07373,0.99072,0.00,0.00,0.00
482,0.22137,-0.01527,-0.28244,0.08838,-0.07373,0.98901,0.00,0.00,0.00
483,0.16031,-0.09924,-0.15267,0.09009,-0.07129,0.98657,0.00,0.00,0.00
484,-0.00763,0.06870,-0.18321,0.09375,-0.06470,1.00098,0.00,0.00,0.00
485,0.03817,0.02290,-0.16031,0.08667,-0.07031,0.98901,0.00,0.00,0.00
486,0.24427,-0.12977,-0.00763,0.08691,-0.07666,0.98218,0.00,0.00,0.00
487,0.01527,-0.12214,-0.15267,0.09082,-0.06616,0.99414,0.00,0.00,0.00
488,0.19084,0.09924,-0.13740,0.08545,-0.07471,0.99365,0.00,0.00,0.00
489,0.03053,-0.07634,-0.07634,0.08496,-0.07031,0.99121,0.00,0.00,0.00
490,0.21374,0.19847,-0.12977,0.08936,-0.07007,0.98926,0.00,0.00,0.00
491,0.13740,0.21374,-0.16794,0.09277,-0.07080,0.98340,0.00,0.00,0.00
492,0.16031,0.13740,-0.13740,0.09229,-0.06860,0.98877,0.00,0.00,0.00
493,-0.09160,0.20611,-0.10687,0.08911,-0.06812,0.99072,0.00,0.00,0.00
494,0.11450,-0.10687,-0.23664,0.09277,-0.06763,0.99194,0.00,0.00,0.00
495,0.07634,-0.22137,-0.19847,0.09155,-0.06787,0.98877,0.00,0.00,0.00
496,0.01527,0.23664,-0.05344,0.08081,-0.07397,0.99463,0.00,0.00,0.00
497,-0.01527,0.00763,-0.22137,0.08984,-0.07324,0.98950,0.00,0.00,0.00
498,-0.16031,0.05344,-0.11450,0.09302,-0.07031,0.98779,0.00,0.00,0.00
499,-0.13740,0.06107,-0.19084,0.08984,-0.06689,0.99072,0.00,0.00,0.00
500,-0.02290,-0.03053,-0.14504,0.08862,-0.07275,0.99414,0.00,0.00,0.00
501,0.00763,0.19847,-0.05344,0.08862,-0.07007,0.99585,0.00,0.00,0.00
502,-0.12214,0.05344,-0.22137,0.08862,-0.07617,0.98511,0.00,0.00,0.00
503,-0.15267,0.08397,-0.00763,0.09082,-0.07227,0.98706,0.00,0.00,0.00
504,-0.17557,0.12214,-0.19084,0.08911,-0.06812,0.99634,0.00,0.00,0.00
505,-0.24427,-0.11450,-0.34351,0.09033,-0.06763,0.98291,0.00,0.00,0.00
506,0.01527,0.04580,-0.23664,0.08911,-0.07056,0.99048,0.00,0.00,0.00
507,-0.16794,-0.16794,-0.09160,0.08447,-0.07300,0.99438,0.00,0.00,0.00
508,-0.26718,0.19084,-0.07634,0.07935,-0.07300,0.98730,0.00,0.00,0.00
509,-0.18321,0.05344,0.00763,0.09082,-0.07788,0.99146,0.00,0.00,0.00
510,0.02290,0.07634,-0.20611,0.09717,-0.06689,0.98389,0.00,0.00,0.00
511,-0.09160,0.06870,-0.14504,0.08521,-0.07153,0.98853,0.00,0.00,0.00
512,-0.16031,0.03053,-0.12977,0.08667,-0.06616,0.98608,0.00,0.00,0.00
513,-0.11450,0.35115,-0.06870,0.08765,-0.06445,0.98926,0.00,0.00,0.00
514,-0.07634,0.03053,0.01527,0.08984,-0.07178,0.99487,0.00,0.00,0.00
515,-0.09160,0.09924,-0.16794,0.09131,-0.06812,0.99365,0.00,0.00,0.00
516,-0.24427,0.06870,-0.23664,0.08960,-0.07715,0.98608,0.00,0.00,0.00
517,-0.17557,-0.12214,-0.17557,0.08862,-0.06714,0.98291,0.00,0.00,0.00
518,-0.19847,-0.10687,-0.25191,0.09106,-0.06470,0.99072,0.00,0.00,0.00
519,-0.11450,0.27481,0.02290,0.08813,-0.07642,0.98340,0.00,0.00,0.00
520,-0.09924,0.29771,-0.19084,0.08789,-0.07178,0.99658,0.00,0.00,0.00
521,-0.09160,0.16794,-0.13740,0.09033,-0.07349,0.98608,0.00,0.00,0.00
522,-0.23664,-0.08397,-0.19847,0.09180,-0.07202,0.99170,0.00,0.00,0.00
523,0.00763,0.03053,-0.29771,0.08960,-0.07495,0.99316,0.00,0.00,0.00
524,-0.35878,-0.03053,-0.09924,0.08911,-0.07715,0.99219,0.00,0.00,0.00
525,-0.16794,-0.04580,-0.25191,0.09058,-0.07397,0.98633,0.00,0.00,0.00
526,-0.22901,0.21374,-0.17557,0.08862,-0.07153,0.99438,0.00,0.00,0.00
527,-0.28244,0.06107,-0.16794,0.08716,-0.07202,0.99365,0.00,0.00,0.00
528,-0.06870,0.17557,-0.01527,0.08423,-0.07690,0.98950,0.00,0.00,0.00
529,-0.31298,0.29771,-0.29771,0.09082,-0.06689,0.98340,0.00,0.00,0.00
530,-0.26718,0.11450,-0.08397,0.08496,-0.07373,0.99121,0.00,0.00,0.00
531,-0.35878,0.16031,-0.23664,0.08813,-0.07104,0.99023,0.00,0.00,0.00
532,-0.34351,-0.00763,-0.20611,0.08765,-0.07471,0.99072,0.00,0.00,0.00
533,-0.28244,0.11450,-0.19847,0.08936,-0.06934,0.99585,0.00,0.00,0.00
534,-0.12214,0.21374,-0.34351,0.09277,-0.07104,0.99829,0.00,0.00,0.00
535,-0.03817,0.21374,-0.13740,0.08960,-0.07227,0.99707,0.00,0.00,0.00
536,0.00000,0.34351,-0.24427,0.09448,-0.07056,0.98730,0.00,0.00,0.00
537,-0.36641,0.26718,-0.19084,0.08984,-0.06592,0.98779,0.00,0.00,0.00
538,-0.39695,0.01527,-0.29771,0.08936,-0.07251,0.98804,0.00,0.00,0.00
539,-0.29008,0.19084,-0.27481,0.09180,-0.07056,0.98828,0.00,0.00,0.00
540,-0.48092,0.18321,-0.24427,0.09546,-0.07056,0.99316,0.00,0.00,0.00
541,-0.45038,0.04580,-0.06870,0.08130,-0.07129,0.98218,0.00,0.00,0.00
542,-0.35115,0.34351,0.00763,0.09180,-0.07373,0.98999,0.00,0.00,0.00
543,-0.35878,-0.05344,-0.16031,0.09033,-0.07251,0.98877,0.00,0.00,0.00
544,-0.54962,0.38168,-0.16794,0.09106,-0.07202,0.99854,0.00,0.00,0.00
545,-0.35878,0.18321,-0.23664,0.08423,-0.07373,0.98828,0.00,0.00,0.00
546,-0.24427,0.18321,-0.12214,0.09106,-0.07080,0.98999,0.00,0.00,0.00
547,-0.32824,-0.03053,-0.13740,0.08740,-0.07495,0.99609,0.00,0.00,0.00
548,-0.28244,0.07634,-0.24427,0.08911,-0.07715,0.99219,0.00,0.00,0.00
549,-0.25191,0.39695,-0.16794,0.09058,-0.06836,0.99072,0.00,0.00,0.00
550,-0.29771,0.28244,-0.19084,0.08423,-0.07373,0.98926,0.00,0.00,0.00
551,-0.16031,0.29771,-0.02290,0.08545,-0.07007,0.99561,0.00,0.00,0.00
552,-0.29771,0.27481,0.01527,0.09106,-0.06909,0.98315,0.00,0.00,0.00
553,-0.19847,0.36641,-0.00763,0.08594,-0.07153,0.99536,0.00,0.00,0.00
554,-0.32824,0.16031,-0.26718,0.09155,-0.07007,0.98218,0.00,0.00,0.00
555,-0.17557,0.17557,-0.12214,0.08716,-0.07593,0.99219,0.00,0.00,0.00
556,-0.19084,0.29008,-0.13740,0.08276,-0.07495,0.99365,0.00,0.00,0.00
557,-0.31298,0.19847,-0.28244,0.09155,-0.07275,0.99023,0.00,0.00,0.00
558,0.00763,0.23664,-0.16031,0.09009,-0.06372,0.98340,0.00,0.00,0.00
559,-0.26718,0.22901,-0.30534,0.08936,-0.07007,0.99023,0.00,0.00,0.00
560,-0.24427,0.29008,-0.01527,0.08765,-0.07129,0.98413,0.00,0.00,0.00
561,-0.24427,0.16794,-0.09924,0.08960,-0.07153,0.99023,0.00,0.00,0.00
562,-0.07634,0.15267,-0.11450,0.08594,-0.07446,0.99170,0.00,0.00,0.00
563,-0.17557,0.19084,-0.25954,0.08374,-0.07324,0.98633,0.00,0.00,0.00
564,-0.42748,0.20611,-0.14504,0.08984,-0.06738,0.99854,0.00,0.00,0.00
565,-0.51145,0.18321,-0.32824,0.09644,-0.07739,0.99146,0.00,0.00,0.00
566,-0.09924,0.28244,-0.10687,0.08667,-0.07715,0.98804,0.00,0.00,0.00
567,-0.12977,0.08397,-0.12977,0.08496,-0.06738,0.99487,0.00,0.00,0.00
568,-0.32061,0.16794,-0.25954,0.09229,-0.08203,0.99023,0.00,0.00,0.00
569,-0.06870,0.25191,-0.12977,0.08545,-0.07397,0.99316,0.00,0.00,0.00
570,-0.19084,0.29771,-0.13740,0.09375,-0.07178,0.98828,0.00,0.00,0.00
571,-0.17557,0.14504,-0.34351,0.08374,-0.07495,0.98437,0.00,0.00,0.00
572,-0.01527,0.12214,-0.12214,0.09375,-0.07251,0.99048,0.00,0.00,0.00
573,0.07634,0.08397,-0.17557,0.08472,-0.07593,0.98462,0.00,0.00,0.00
574,-0.05344,0.05344,-0.19084,0.09082,-0.07300,0.99292,0.00,0.00,0.00
575,0.09924,-0.17557,-0.08397,0.08569,-0.07568,0.98193,0.00,0.00,0.00
576,0.10687,-0.13740,-0.19084,0.08740,-0.06836,0.99683,0.00,0.00,0.00
577,0.12977,-0.17557,-0.07634,0.08911,-0.06543,0.99316,0.00,0.00,0.00
578,0.17557,-0.36641,-0.03053,0.08740,-0.07300,0.99463,0.00,0.00,0.00
579,0.01527,-0.03817,-0.18321,0.08691,-0.07300,0.98755,0.00,0.00,0.00
580,0.12214,-0.00763,-0.09160,0.08813,-0.07227,0.98755,0.00,0.00,0.00
581,0.16031,-0.03817,-0.12214,0.09033,-0.07471,0.98389,0.00,0.00,0.00
582,0.06107,-0.08397,-0.09160,0.08984,-0.07593,0.99146,0.00,0.00,0.00
583,0.38931,-0.35878,-0.11450,0.08594,-0.07251,0.99194,0.00,0.00,0.00
584,0.14504,-0.22137,-0.07634,0.08716,-0.07080,0.98511,0.00,0.00,0.00
585,0.06870,-0.03053,-0.19084,0.08618,-0.06860,0.98267,0.00,0.00,0.00
586,0.04580,-0.02290,-0.06107,0.09009,-0.06592,0.98608,0.00,0.00,0.00
587,-0.00763,0.06107,-0.04580,0.08398,-0.07129,0.98877,0.00,0.00,0.00
588,0.06870,-0.09924,-0.00763,0.08423,-0.07642,0.98535,0.00,0.00,0.00
589,0.00763,0.02290,-0.16794,0.09302,-0.07690,0.98437,0.00,0.00,0.00
590,0.16031,-0.12977,-0.21374,0.09082,-0.07397,0.99072,0.00,0.00,0.00
591,0.35878,-0.10687,-0.03053,0.08813,-0.06909,0.98608,0.00,0.00,0.00
592,0.10687,0.12214,-0.23664,0.09302,-0.06592,0.99609,0.00,0.00,0.00
593,0.06870,-0.10687,-0.03817,0.08643,-0.06543,0.99268,0.00,0.00,0.00
594,0.04580,0.00763,-0.20611,0.08716,-0.07397,0.98999,0.00,0.00,0.00
595,-0.19847,0.14504,-0.22901,0.07935,-0.07007,0.99634,0.00,0.00,0.00
596,0.09160,-0.01527,-0.12977,0.09106,-0.07593,0.98389,0.00,0.00,0.00
597,-0.06107,0.01527,-0.16794,0.09033,-0.07983,0.98730,0.00,0.00,0.00
598,-0.09160,-0.20611,-0.22901,0.09204,-0.07251,0.99170,0.00,0.00,0.00
599,0.09160,-0.09160,0.05344,0.09180,-0.07495,0.98755,0.00,0.00,0.00
600,0.20611,0.01527,0.03053,0.09082,-0.07007,0.99316,0.00,0.00,0.00
601,0.04580,-0.09924,-0.08397,0.08643,-0.07422,0.98560,0.00,0.00,0.00
602,0.12214,-0.20611,-0.19084,0.09082,-0.06934,0.98584,0.00,0.00,0.00
603,0.11450,-0.04580,-0.09924,0.09473,-0.07227,0.98950,0.00,0.00,0.00
604,0.19847,0.02290,-0.11450,0.08813,-0.07495,0.99414,0.00,0.00,0.00
605,-0.09924,-0.16794,-0.08397,0.08813,-0.06909,0.99341,0.00,0.00,0.00
606,-0.07634,0.13740,-0.18321,0.09180,-0.07300,0.98926,0.00,0.00,0.00
607,-0.03817,-0.06870,0.09160,0.08179,-0.07251,0.98901,0.00,0.00,0.00
608,-0.02290,0.22137,-0.05344,0.08374,-0.07617,0.98975,0.00,0.00,0.00
609,0.17557,-0.02290,-0.00763,0.08960,-0.06860,0.99023,0.00,0.00,0.00
610,0.12214,0.00000,-0.02290,0.09058,-0.07422,0.99512,0.00,0.00,0.00
611,0.09160,0.05344,-0.38168,0.09180,-0.07129,0.99487,0.00,0.00,0.00
612,0.11450,-0.26718,-0.06107,0.08984,-0.07397,0.99243,0.00,0.00,0.00
613,0.03817,-0.06870,-0.09160,0.09277,-0.07788,0.98486,0.00,0.00,0.00
614,0.13740,-0.08397,-0.14504,0.09277,-0.07300,0.99268,0.00,0.00,0.00
615,0.05344,-0.06107,-0.24427,0.09058,-0.06958,0.98975,0.00,0.00,0.00
616,0.05344,0.06870,-0.09924,0.08252,-0.07056,0.99390,0.00,0.00,0.00
617,-0.03053,0.18321,-0.00763,0.08862,-0.07153,0.99170,0.00,0.00,0.00
618,0.13740,-0.08397,-0.19084,0.08716,-0.07080,0.98926,0.00,0.00,0.00
619,-0.03053,0.02290,-0.23664,0.08594,-0.07520,0.98999,0.00,0.00,0.00
620,0.02290,-0.15267,-0.17557,0.09106,-0.07495,1.00171,0.00,0.00,0.00
621,0.03053,-0.12214,-0.09160,0.08862,-0.07104,0.99316,0.00,0.00,0.00
622,0.12977,-0.01527,-0.12977,0.09131,-0.07104,0.97729,0.00,0.00,0.00
623,-0.07634,-0.12214,-0.05344,0.09009,-0.07715,0.98437,0.00,0.00,0.00
624,0.17557,0.12977,-0.08397,0.08984,-0.06909,0.98975,0.00,0.00,0.00
625,-0.06107,0.22901,0.03053,0.09106,-0.07373,0.98657,0.00,0.00,0.00
626,-0.07634,0.05344,-0.03053,0.08594,-0.07520,0.99048,0.00,0.00,0.00
627,0.10687,-0.11450,-0.30534,0.08472,-0.07397,0.99561,0.00,0.00,0.00
628,0.07634,0.16031,-0.15267,0.08423,-0.07104,0.98926,0.00,0.00,0.00
629,-0.21374,0.00000,-0.17557,0.08862,-0.06738,0.99805,0.00,0.00,0.00
630,0.20611,0.03817,-0.20611,0.08838,-0.06958,0.99561,0.00,0.00,0.00
631,-0.06870,-0.19847,0.09160,0.08716,-0.06958,0.98975,0.00,0.00,0.00
632,0.06107,0.07634,0.02290,0.09131,-0.07227,0.99805,0.00,0.00,0.00
633,-0.16031,-0.02290,-0.06870,0.08667,-0.07007,0.99268,0.00,0.00,0.00
634,-0.16794,0.19847,-0.03817,0.08740,-0.07007,0.98413,0.00,0.00,0.00
635,-0.03053,-0.05344,-0.05344,0.08862,-0.06958,0.98535,0.00,0.00,0.00
636,0.04580,0.16031,-0.02290,0.09180,-0.07007,0.98730,0.00,0.00,0.00
637,0.06107,0.14504,-0.08397,0.09033,-0.07300,0.98926,0.00,0.00,0.00
638,-0.11450,0.00000,-0.11450,0.08545,-0.07031,0.99219,0.00,0.00,0.00
639,-0.12977,0.16794,-0.31298,0.08838,-0.07178,0.99341,0.00,0.00,0.00
640,-0.10687,0.29008,0.03817,0.09448,-0.07422,0.99390,0.00,0.00,0.00
641,0.09924,0.18321,-0.23664,0.08569,-0.07300,0.99072,0.00,0.00,0.00
642,-0.18321,0.11450,-0.09924,0.07910,-0.07544,0.99023,0.00,0.00,0.00
643,-0.03817,0.22901,-0.19847,0.08838,-0.06982,0.99658,0.00,0.00,0.00
644,0.03053,0.07634,-0.10687,0.08765,-0.06299,0.98096,0.00,0.00,0.00
645,-0.12214,0.22901,-0.06107,0.08618,-0.07227,0.98975,0.00,0.00,0.00
646,-0.06107,0.05344,-0.12977,0.08521,-0.07642,0.98633,0.00,0.00,0.00
647,-0.16794,0.32824,-0.13740,0.09009,-0.06641,0.99316,0.00,0.00,0.00
648,-0.19084,0.05344,-0.12214,0.09595,-0.07178,0.99976,0.00,0.00,0.00
649,-0.01527,-0.13740,-0.24427,0.08667,-0.07471,0.98730,0.00,0.00,0.00
650,-0.27481,0.06870,-0.21374,0.09082,-0.07129,0.99121,0.00,0.00,0.00
651,0.00000,0.07634,-0.17557,0.09595,-0.07104,0.98340,0.00,0.00,0.00
652,-0.09160,0.22137,-0.09924,0.09009,-0.07007,0.98437,0.00,0.00,0.00
653,-0.19084,0.05344,-0.23664,0.08081,-0.06689,0.99707,0.00,0.00,0.00
654,-0.09924,0.37405,-0.06870,0.08667,-0.07202,0.98950,0.00,0.00,0.00
655,-0.09160,0.24427,-0.26718,0.09082,-0.07104,0.99146,0.00,0.00,0.00
656,-0.15267,-0.09160,-0.11450,0.08423,-0.07886,0.99585,0.00,0.00,0.00
657,-0.12977,0.20611,0.01527,0.08398,-0.06641,0.99170,0.00,0.00,0.00
658,0.02290,-0.06107,-0.09924,0.08569,-0.07007,0.99731,0.00,0.00,0.00
659,-0.11450,-0.03053,-0.28244,0.08667,-0.06738,0.98779,0.00,0.00,0.00
660,-0.21374,0.11450,-0.18321,0.09204,-0.06812,0.98804,0.00,0.00,0.00
661,-0.03817,0.01527,-0.18321,0.08813,-0.07520,0.98584,0.00,0.00,0.00
662,-0.14504,-0.14504,-0.15267,0.08228,-0.07617,0.99219,0.00,0.00,0.00
663,-0.11450,-0.05344,-0.19847,0.08228,-0.07349,0.99146,0.00,0.00,0.00
664,-0.04580,-0.06107,-0.28244,0.09229,-0.07031,0.99707,0.00,0.00,0.00
665,0.04580,0.06870,-0.19847,0.08594,-0.07104,0.99609,0.00,0.00,0.00
666,-0.10687,0.16031,-0.12977,0.08984,-0.06909,0.98560,0.00,0.00,0.00
667,-0.14504,0.09160,-0.12977,0.08765,-0.07275,0.99268,0.00,0.00,0.00
668,-0.12977,0.25954,-0.19847,0.10181,-0.06641,0.98804,0.00,0.00,0.00
669,-0.03817,0.11450,-0.35878,0.09058,-0.07349,0.99585,0.00,0.00,0.00
670,-0.02290,-0.12214,-0.25954,0.08569,-0.07666,0.98853,0.00,0.00,0.00
671,0.04580,-0.09924,-0.16031,0.08862,-0.07275,0.99097,0.00,0.00,0.00
672,0.06870,-0.16031,-0.09160,0.08643,-0.07080,0.99780,0.00,0.00,0.00
673,-0.05344,0.13740,-0.16794,0.08374,-0.07690,0.98706,0.00,0.00,0.00
674,0.00000,0.25191,-0.26718,0.08716,-0.07300,0.99268,0.00,0.00,0.00
675,-0.08397,0.26718,-0.10687,0.08984,-0.06982,0.99023,0.00,0.00,0.00
676,-0.04580,-0.06107,-0.19084,0.08447,-0.07227,0.98584,0.00,0.00,0.00
677,-0.12214,0.10687,-0.09924,0.08960,-0.06787,0.98877,0.00,0.00,0.00
678,-0.10687,0.01527,-0.24427,0.08936,-0.06885,0.98315,0.00,0.00,0.00
679,-0.01527,-0.08397,-0.16794,0.08862,-0.06494,0.99194,0.00,0.00,0.00
680,0.06870,-0.02290,-0.01527,0.08838,-0.07227,0.99707,0.00,0.00,0.00
681,-0.23664,0.22137,-0.16031,0.09229,-0.07153,1.00049,0.00,0.00,0.00
682,0.02290,0.02290,-0.22901,0.09277,-0.07983,0.98560,0.00,0.00,0.00
683,-0.08397,0.20611,-0.25954,0.08960,-0.07349,0.99609,0.00,0.00,0.00
684,-0.00763,0.03053,-0.11450,0.09302,-0.06909,0.99219,0.00,0.00,0.00
685,0.01527,0.16794,-0.17557,0.08667,-0.07520,0.99683,0.00,0.00,0.00
686,0.16794,-0.07634,-0.22901,0.08423,-0.07300,0.99243,0.00,0.00,0.00
687,0.02290,-0.12977,-0.22901,0.08521,-0.07617,0.99365,0.00,0.00,0.00
688,-0.10687,-0.12214,-0.18321,0.08960,-0.07471,0.99365,0.00,0.00,0.00
689,-0.08397,-0.00763,-0.12214,0.08716,-0.07227,0.99268,0.00,0.00,0.00
690,-0.04580,0.08397,-0.16794,0.08740,-0.06616,0.99756,0.00,0.00,0.00
691,-0.15267,0.08397,-0.14504,0.09302,-0.07495,0.98999,0.00,0.00,0.00
692,0.11450,-0.06107,0.03817,0.08765,-0.07324,0.99194,0.00,0.00,0.00
693,-0.04580,0.15267,-0.17557,0.08960,-0.06787,0.99023,0.00,0.00,0.00
694,-0.04580,-0.01527,-0.09924,0.09106,-0.07031,0.98999,0.00,0.00,0.00
695,-0.04580,0.12214,-0.20611,0.08838,-0.07373,0.99609,0.00,0.00,0.00
696,0.02290,0.00000,-0.21374,0.09033,-0.07300,0.99756,0.00,0.00,0.00
697,0.32061,-0.06870,-0.19084,0.08447,-0.07007,0.98486,0.00,0.00,0.00
698,-0.06870,0.11450,-0.20611,0.09082,-0.07007,0.99048,0.00,0.00,0.00
699,-0.05344,-0.08397,-0.25954,0.08521,-0.06885,1.00073,0.00,0.00,0.00
700,0.11450,0.04580,-0.17557,0.08765,-0.07642,0.98584,0.00,0.00,0.00
701,-0.06107,-0.00763,-0.09160,0.09155,-0.07251,0.99194,0.00,0.00,0.00
702,-0.12214,0.15267,-0.22901,0.08740,-0.07422,0.99243,0.00,0.00,0.00
703,-0.17557,-0.05344,-0.09924,0.08765,-0.06665,0.99707,0.00,0.00,0.00
704,0.09924,0.10687,-0.13740,0.08374,-0.07300,0.99756,0.00,0.00,0.00
705,-0.03817,0.13740,-0.24427,0.09253,-0.07300,0.98145,0.00,0.00,0.00
706,-0.09924,0.19847,-0.20611,0.08398,-0.06763,0.99487,0.00,0.00,0.00
707,-0.01527,0.00763,-0.25954,0.08936,-0.06641,0.98584,0.00,0.00,0.00
708,-0.09160,0.00000,-0.03817,0.08350,-0.07935,0.99048,0.00,0.00,0.00
709,0.10687,0.29771,-0.06870,0.08643,-0.07178,0.99829,0.00,0.00,0.00
710,-0.09924,0.53435,-0.19084,0.09497,-0.06982,0.99487,0.00,0.00,0.00
711,-0.09924,0.07634,-0.10687,0.08862,-0.06763,0.98389,0.00,0.00,0.00
712,-0.06107,0.10687,-0.25191,0.09131,-0.07520,1.00366,0.00,0.00,0.00
713,0.09924,0.35878,-0.12977,0.09204,-0.07227,0.99097,0.00,0.00,0.00
714,0.00000,0.35115,-0.15267,0.08472,-0.07056,0.98340,0.00,0.00,0.00
715,-0.21374,0.32061,-0.06107,0.09473,-0.07031,0.99146,0.00,0.00,0.00
716,-0.06107,0.23664,-0.21374,0.08667,-0.07104,0.99414,0.00,0.00,0.00
717,-0.22901,0.25191,-0.19847,0.09033,-0.07251,0.99561,0.00,0.00,0.00
718,-0.09924,0.17557,-0.12977,0.08643,-0.07056,0.98975,0.00,0.00,0.00
719,-0.04580,0.32061,0.04580,0.08569,-0.07520,0.98560,0.00,0.00,0.00
720,0.04580,0.17557,-0.33588,0.09180,-0.07617,0.98560,0.00,0.00,0.00
721,0.01527,0.21374,-0.12214,0.08887,-0.06982,0.99268,0.00,0.00,0.00
722,-0.06107,-0.09160,-0.28244,0.08472,-0.07056,0.99731,0.00,0.00,0.00
723,-0.23664,0.09160,-0.15267,0.09082,-0.07324,0.98828,0.00,0.00,0.00
724,-0.12977,0.10687,-0.19084,0.08911,-0.07251,0.98877,0.00,0.00,0.00
725,-0.12214,0.30534,-0.07634,0.08447,-0.07056,0.98926,0.00,0.00,0.00
726,-0.01527,0.16794,-0.23664,0.08398,-0.06787,0.98608,0.00,0.00,0.00
727,-0.15267,0.33588,-0.06870,0.08105,-0.07153,0.99683,0.00,0.00,0.00
728,-0.20611,0.32061,-0.21374,0.08789,-0.06836,0.98877,0.00,0.00,0.00
729,-0.05344,0.32824,-0.44275,0.09180,-0.07153,0.99634,0.00,0.00,0.00
730,0.08397,0.16031,-0.09924,0.09155,-0.06934,0.98511,0.00,0.00,0.00
731,-0.18321,0.23664,-0.19084,0.09229,-0.07202,0.98853,0.00,0.00,0.00
732,0.04580,0.03817,-0.25954,0.08276,-0.07104,0.99561,0.00,0.00,0.00
733,0.05344,0.40458,-0.09160,0.08228,-0.07324,0.99268,0.00,0.00,0.00
734,-0.12214,0.20611,-0.15267,0.09521,-0.07495,0.99048,0.00,0.00,0.00
735,-0.25954,0.37405,-0.19084,0.08472,-0.08032,0.99072,0.00,0.00,0.00
736,-0.08397,0.12977,-0.08397,0.09204,-0.07397,0.99365,0.00,0.00,0.00
737,-0.18321,0.19084,-0.34351,0.08716,-0.07104,0.99365,0.00,0.00,0.00
738,-0.00763,0.23664,-0.09924,0.08301,-0.07227,0.99390,0.00,0.00,0.00
739,-0.05344,0.14504,0.00000,0.09106,-0.07324,0.99146,0.00,0.00,0.00
740,-0.15267,0.16794,0.03053,0.08862,-0.07544,0.99658,0.00,0.00,0.00
741,-0.05344,0.16794,-0.21374,0.09790,-0.07227,0.99243,0.00,0.00,0.00
742,-0.10687,0.29771,-0.25954,0.09106,-0.07153,0.99292,0.00,0.00,0.00
743,-0.06107,0.35878,-0.08397,0.08667,-0.07153,0.99414,0.00,0.00,0.00
744,-0.13740,0.18321,-0.09160,0.08374,-0.07153,0.99097,0.00,0.00,0.00
745,-0.01527,-0.02290,-0.23664,0.09668,-0.07568,0.99170,0.00,0.00,0.00
746,-0.06107,0.05344,-0.09160,0.08765,-0.07056,1.00073,0.00,0.00,0.00
747,0.04580,0.25191,0.01527,0.08618,-0.07153,1.00293,0.00,0.00,0.00
748,0.03053,0.25954,-0.32061,0.09082,-0.07080,0.98779,0.00,0.00,0.00
749,-0.04580,0.18321,-0.16031,0.08862,-0.07544,0.98608,0.00,0.00,0.00
750,-0.09160,0.27481,-0.29771,0.08838,-0.06738,0.98804,0.00,0.00,0.00
751,0.19847,0.32061,-0.12214,0.08643,-0.07251,0.99121,0.00,0.00,0.00
752,0.04580,0.09924,-0.31298,0.08350,-0.07227,0.98901,0.00,0.00,0.00
753,-0.03817,0.21374,-0.34351,0.08447,-0.07080,0.99170,0.00,0.00,0.00
754,-0.11450,0.22901,-0.16794,0.09131,-0.07080,0.99097,0.00,0.00,0.00
755,0.11450,0.13740,-0.09924,0.09131,-0.07495,0.98975,0.00,0.00,0.00
756,0.00763,0.06107,-0.12214,0.08667,-0.07227,0.99463,0.00,0.00,0.00
757,-0.11450,0.01527,-0.12214,0.09033,-0.06641,0.98730,0.00,0.00,0.00
758,-0.07634,0.16794,-0.16794,0.09644,-0.07275,0.99536,0.00,0.00,0.00
759,0.01527,0.16794,-0.02290,0.09473,-0.07080,0.98560,0.00,0.00,0.00
760,-0.07634,0.08397,-0.18321,0.09131,-0.07007,0.98999,0.00,0.00,0.00
761,0.13740,-0.03817,-0.23664,0.08423,-0.07104,0.99194,0.00,0.00,0.00
762,0.03817,0.04580,0.05344,0.09033,-0.06934,0.99023,0.00,0.00,0.00
763,-0.07634,-0.01527,-0.10687,0.08423,-0.07202,0.99561,0.00,0.00,0.00
764,0.12977,-0.01527,-0.19084,0.08765,-0.07227,0.98755,0.00,0.00,0.00
765,-0.04580,0.14504,-0.08397,0.09009,-0.07373,0.99121,0.00,0.00,0.00
766,0.01527,0.02290,-0.24427,0.08862,-0.07129,0.98413,0.00,0.00,0.00
767,0.00000,0.11450,-0.01527,0.08740,-0.07056,0.99219,0.00,0.00,0.00
768,-0.10687,0.14504,-0.12977,0.08398,-0.07251,0.99097,0.00,0.00,0.00
769,-0.01527,-0.06870,-0.16031,0.08643,-0.07324,0.99756,0.00,0.00,0.00
770,0.17557,-0.04580,-0.10687,0.08813,-0.07202,0.99023,0.00,0.00,0.00
771,-0.09160,0.11450,-0.10687,0.08618,-0.07520,0.98315,0.00,0.00,0.00
772,-0.04580,0.33588,-0.23664,0.08862,-0.07446,0.99829,0.00,0.00,0.00
773,0.01527,0.15267,-0.12977,0.08374,-0.07495,0.99927,0.00,0.00,0.00
774,-0.05344,0.04580,-0.18321,0.08911,-0.07056,1.00488,0.00,0.00,0.00
775,0.05344,0.00763,0.05344,0.09497,-0.07349,0.98486,0.00,0.00,0.00
776,0.17557,0.13740,-0.13740,0.09229,-0.07227,0.99268,0.00,0.00,0.00
777,-0.01527,-0.09160,-0.16794,0.08203,-0.06958,0.99414,0.00,0.00,0.00
778,0.09924,0.00763,-0.16031,0.09009,-0.06616,0.98657,0.00,0.00,0.00
779,-0.06107,-0.04580,-0.00763,0.08643,-0.07642,0.98877,0.00,0.00,0.00
780,0.03817,-0.04580,-0.36641,0.08398,-0.07202,0.99438,0.00,0.00,0.00
781,-0.06870,-0.12977,-0.20611,0.08569,-0.07104,0.98950,0.00,0.00,0.00
782,-0.28244,-0.05344,-0.12977,0.07983,-0.06958,0.99316,0.00,0.00,0.00
783,-0.01527,0.06870,-0.19084,0.08911,-0.07227,0.98511,0.00,0.00,0.00
784,0.20611,-0.32824,-0.03817,0.08618,-0.07104,0.99292,0.00,0.00,0.00
785,0.07634,-0.06870,-0.15267,0.08179,-0.07617,0.98511,0.00,0.00,0.00
786,0.26718,0.11450,-0.10687,0.07690,-0.07275,0.98560,0.00,0.00,0.00
787,0.18321,0.17557,-0.27481,0.08179,-0.07373,0.99097,0.00,0.00,0.00
788,-0.11450,0.17557,-0.05344,0.08325,-0.07690,0.99463,0.00,0.00,0.00
789,-0.12977,0.24427,-0.10687,0.08569,-0.06787,0.98535,0.00,0.00,0.00
790,-0.02290,0.16794,-0.06107,0.09180,-0.07495,0.98608,0.00,0.00,0.00
791,0.00000,0.26718,-0.15267,0.08789,-0.07300,0.98877,0.00,0.00,0.00
792,-0.03053,0.12214,-0.01527,0.08618,-0.07446,0.98315,0.00,0.00,0.00
793,-0.15267,0.21374,-0.07634,0.08496,-0.06519,0.99536,0.00,0.00,0.00
794,0.15267,0.03817,-0.19847,0.08325,-0.07080,0.98853,0.00,0.00,0.00
795,-0.01527,0.29008,-0.17557,0.08081,-0.07056,0.99512,0.00,0.00,0.00
796,0.06870,-0.00763,-0.27481,0.08423,-0.07178,0.99878,0.00,0.00,0.00
797,-0.05344,0.23664,-0.24427,0.08813,-0.06372,0.99536,0.00,0.00,0.00
798,-0.16031,0.15267,-0.13740,0.08765,-0.07788,0.99487,0.00,0.00,0.00
799,0.00000,0.09924,-0.16031,0.08423,-0.07397,0.98877,0.00,0.00,0.00
800,-0.08397,0.22137,-0.21374,0.08887,-0.07593,0.99341,0.00,0.00,0.00
801,-0.20611,0.12977,-0.13740,0.08716,-0.07129,0.99268,0.00,0.00,0.00
802,0.01527,0.22137,-0.07634,0.08911,-0.07617,0.98901,0.00,0.00,0.00
803,0.01527,0.06870,-0.19847,0.08447,-0.07251,0.98877,0.00,0.00,0.00
804,0.00763,0.20611,-0.23664,0.07910,-0.07471,0.99121,0.00,0.00,0.00
805,-0.05344,-0.09924,-0.08397,0.08838,-0.06958,0.98315,0.00,0.00,0.00
806,0.03817,0.02290,-0.25191,0.09131,-0.07397,0.99365,0.00,0.00,0.00
807,0.09924,-0.00763,-0.15267,0.08594,-0.06860,0.98413,0.00,0.00,0.00
808,0.06107,0.10687,-0.24427,0.08521,-0.07422,0.99121,0.00,0.00,0.00
809,-0.11450,0.24427,-0.26718,0.08276,-0.07031,0.98901,0.00,0.00,0.00
810,0.01527,0.06107,-0.15267,0.08057,-0.07397,0.99487,0.00,0.00,0.00
811,-0.03817,0.02290,-0.09924,0.08936,-0.07300,0.98462,0.00,0.00,0.00
812,0.18321,-0.03053,-0.09924,0.08423,-0.07324,0.99561,0.00,0.00,0.00
813,0.03817,-0.05344,-0.14504,0.08643,-0.07666,0.98828,0.00,0.00,0.00
814,-0.10687,0.19847,-0.31298,0.08545,-0.07251,0.98755,0.00,0.00,0.00
815,-0.00763,0.13740,-0.22137,0.08667,-0.07300,0.98926,0.00,0.00,0.00
816,0.03817,-0.06870,-0.00763,0.08765,-0.07300,0.98828,0.00,0.00,0.00
817,-0.01527,0.02290,-0.22901,0.09326,-0.07568,0.98950,0.00,0.00,0.00
818,-0.12214,0.01527,-0.20611,0.08911,-0.07568,0.99390,0.00,0.00,0.00
819,-0.10687,0.14504,-0.09924,0.08130,-0.07446,0.99878,0.00,0.00,0.00
820,-0.12977,-0.03053,-0.15267,0.08179,-0.07593,0.98950,0.00,0.00,0.00
821,0.16031,0.17557,-0.09924,0.08374,-0.07178,0.98975,0.00,0.00,0.00
822,-0.04580,0.13740,-0.22137,0.08936,-0.06982,0.98755,0.00,0.00,0.00
823,-0.15267,0.06870,-0.06107,0.08203,-0.07690,0.98853,0.00,0.00,0.00
824,0.11450,0.19084,-0.09160,0.08496,-0.06714,0.98755,0.00,0.00,0.00
825,-0.15267,0.03817,-0.06107,0.09180,-0.06445,0.98901,0.00,0.00,0.00
826,-0.15267,-0.05344,-0.09160,0.08350,-0.07007,0.99365,0.00,0.00,0.00
827,0.00763,0.14504,-0.14504,0.08521,-0.07080,0.99243,0.00,0.00,0.00
828,-0.25954,0.24427,-0.04580,0.08716,-0.06787,0.99292,0.00,0.00,0.00
829,-0.12214,0.08397,-0.19084,0.08569,-0.07422,0.98706,0.00,0.00,0.00
830,-0.06107,-0.08397,-0.12214,0.08691,-0.07007,0.99414,0.00,0.00,0.00
831,-0.10687,0.20611,-0.06107,0.09180,-0.07520,0.98535,0.00,0.00,0.00
832,-0.06107,0.21374,-0.16031,0.08691,-0.07837,0.98755,0.00,0.00,0.00
833,0.15267,0.03817,-0.16031,0.08276,-0.07056,0.99097,0.00,0.00,0.00
834,0.12977,0.02290,-0.33588,0.08569,-0.07373,0.99414,0.00,0.00,0.00
835,0.06870,-0.00763,-0.16031,0.08691,-0.06738,0.98511,0.00,0.00,0.00
836,0.21374,0.03053,0.00000,0.08569,-0.07837,0.98779,0.00,0.00,0.00
837,0.03053,-0.32824,0.06107,0.08374,-0.06494,0.98853,0.00,0.00,0.00
838,0.05344,-0.00763,-0.31298,0.08667,-0.07349,0.98926,0.00,0.00,0.00
839,0.19847,-0.08397,-0.18321,0.08276,-0.06714,0.98560,0.00,0.00,0.00
840,0.01527,0.10687,-0.24427,0.09229,-0.07373,0.99829,0.00,0.00,0.00
841,0.08397,-0.14504,-0.21374,0.08081,-0.07275,0.98901,0.00,0.00,0.00
842,-0.09924,-0.07634,-0.04580,0.08936,-0.07471,0.99121,0.00,0.00,0.00
843,0.12214,-0.14504,-0.10687,0.09375,-0.07300,0.99927,0.00,0.00,0.00
844,-0.00763,0.03053,-0.06107,0.08765,-0.07031,0.99072,0.00,0.00,0.00
845,0.22901,0.00000,-0.18321,0.08398,-0.06909,0.99390,0.00,0.00,0.00
846,0.19084,0.07634,-0.12214,0.08765,-0.07202,0.99927,0.00,0.00,0.00
847,0.21374,-0.14504,-0.14504,0.08618,-0.07275,0.99414,0.00,0.00,0.00
848,-0.09924,-0.08397,-0.18321,0.08447,-0.07422,0.99194,0.00,0.00,0.00
849,0.03817,-0.32824,-0.19084,0.08521,-0.07153,0.98340,0.00,0.00,0.00
850,-0.05344,0.01527,-0.15267,0.08594,-0.07690,0.98828,0.00,0.00,0.00
851,-0.05344,-0.05344,-0.12977,0.08862,-0.07715,0.98877,0.00,0.00,0.00
852,0.00763,-0.27481,-0.22137,0.08545,-0.07129,0.98706,0.00,0.00,0.00
853,0.03053,-0.15267,-0.10687,0.08594,-0.06860,0.99097,0.00,0.00,0.00
854,0.16031,-0.16031,-0.06870,0.08252,-0.07007,0.99609,0.00,0.00,0.00
855,-0.03053,0.02290,-0.12214,0.09033,-0.07178,0.98730,0.00,0.00,0.00
856,0.17557,-0.16031,-0.06107,0.09448,-0.07813,0.99072,0.00,0.00,0.00
857,-0.09924,0.03817,-0.17557,0.08105,-0.07422,0.98828,0.00,0.00,0.00
858,0.03053,-0.13740,-0.19847,0.08594,-0.07275,0.98804,0.00,0.00,0.00
859,0.00763,-0.02290,-0.10687,0.08325,-0.07300,0.99561,0.00,0.00,0.00
860,-0.15267,-0.06107,-0.03817,0.08984,-0.06641,0.99731,0.00,0.00,0.00
861,-0.03053,-0.16794,-0.12977,0.08569,-0.06958,0.98560,0.00,0.00,0.00
862,0.05344,0.00763,-0.19847,0.09180,-0.06738,0.99805,0.00,0.00,0.00
863,-0.16794,-0.06870,0.10687,0.08960,-0.07300,0.99023,0.00,0.00,0.00
864,0.00763,-0.19847,-0.13740,0.08618,-0.06934,0.98511,0.00,0.00,0.00
865,0.00000,-0.09924,-0.15267,0.09277,-0.07642,0.99414,0.00,0.00,0.00
866,-0.02290,-0.04580,-0.22137,0.08887,-0.07031,0.99512,0.00,0.00,0.00
867,-0.04580,-0.02290,-0.08397,0.08594,-0.07446,0.99365,0.00,0.00,0.00
868,-0.13740,0.21374,0.00000,0.08765,-0.07373,0.99194,0.00,0.00,0.00
869,-0.01527,0.03817,-0.25954,0.08374,-0.07788,0.99854,0.00,0.00,0.00
870,0.07634,-0.16794,-0.16794,0.08472,-0.06958,1.00146,0.00,0.00,0.00
871,0.02290,0.03817,-0.09160,0.08643,-0.07397,0.99438,0.00,0.00,0.00
872,-0.06870,0.12977,-0.22137,0.08813,-0.07300,0.99512,0.00,0.00,0.00
873,-0.31298,-0.15267,-0.16794,0.09326,-0.06909,0.99683,0.00,0.00,0.00
874,-0.16031,0.09160,-0.23664,0.08838,-0.07642,0.98926,0.00,0.00,0.00
875,0.07634,0.10687,-0.09924,0.08545,-0.07104,0.98779,0.00,0.00,0.00
876,-0.05344,-0.08397,-0.15267,0.08301,-0.06616,0.99658,0.00,0.00,0.00
877,-0.03817,-0.03053,-0.06870,0.08667,-0.07422,0.99243,0.00,0.00,0.00
878,-0.16031,-0.02290,-0.00763,0.08643,-0.07031,0.99121,0.00,0.00,0.00
879,0.00000,-0.03817,-0.21374,0.08325,-0.07251,0.99268,0.00,0.00,0.00
880,0.00000,-0.11450,-0.20611,0.09009,-0.06592,0.98413,0.00,0.00,0.00
881,-0.13740,0.09924,-0.26718,0.08643,-0.07300,0.98926,0.00,0.00,0.00
882,-0.06870,-0.06107,-0.06870,0.08936,-0.07617,0.98389,0.00,0.00,0.00
883,0.04580,0.21374,0.09160,0.08374,-0.06958,0.99805,0.00,0.00,0.00
884,-0.10687,0.15267,-0.19847,0.08887,-0.07202,0.99512,0.00,0.00,0.00
885,0.06107,0.10687,-0.22137,0.08765,-0.07178,0.98560,0.00,0.00,0.00
886,0.07634,0.12977,-0.08397,0.08008,-0.07104,0.98901,0.00,0.00,0.00
887,-0.09924,-0.08397,-0.18321,0.08496,-0.07373,0.99463,0.00,0.00,0.00
888,0.06107,0.16031,-0.17557,0.09277,-0.07422,0.98804,0.00,0.00,0.00
889,0.12977,-0.19847,-0.18321,0.08740,-0.07593,0.98755,0.00,0.00,0.00
890,-0.03053,0.03817,-0.25954,0.09326,-0.07202,1.00195,0.00,0.00,0.00
891,0.15267,0.22137,-0.27481,0.08325,-0.07007,0.99170,0.00,0.00,0.00
892,-0.08397,-0.21374,-0.02290,0.08716,-0.07666,0.98193,0.00,0.00,0.00
893,0.14504,0.01527,-0.03817,0.09204,-0.07300,0.98999,0.00,0.00,0.00
894,0.05344,0.21374,0.07634,0.08301,-0.07178,0.98657,0.00,0.00,0.00
895,0.09924,0.29008,-0.23664,0.08862,-0.07373,0.98608,0.00,0.00,0.00
896,-0.08397,0.06870,-0.14504,0.08740,-0.07300,0.99683,0.00,0.00,0.00
897,0.03053,0.07634,-0.25191,0.08936,-0.07397,0.98999,0.00,0.00,0.00
898,0.25954,-0.09160,-0.11450,0.08960,-0.06689,0.99023,0.00,0.00,0.00
899,0.09160,-0.09924,-0.01527,0.08521,-0.06738,0.98413,0.00,0.00,0.00
900,0.19847,0.04580,-0.03053,0.08765,-0.07300,0.98682,0.00,0.00,0.00
901,0.18321,-0.05344,-0.15267,0.09033,-0.07178,0.98755,0.00,0.00,0.00
902,-0.06107,-0.01527,-0.03053,0.08447,-0.07129,0.98511,0.00,0.00,0.00
903,0.07634,0.03817,-0.09924,0.08618,-0.06934,0.98901,0.00,0.00,0.00
904,0.03053,-0.09160,-0.07634,0.08643,-0.07324,0.99121,0.00,0.00,0.00
905,-0.02290,0.09924,-0.22901,0.08740,-0.07300,0.98340,0.00,0.00,0.00
906,0.03053,0.16794,-0.12214,0.08911,-0.07251,0.99976,0.00,0.00,0.00
907,-0.06107,-0.17557,-0.24427,0.09131,-0.07202,0.98462,0.00,0.00,0.00
908,0.16031,-0.02290,-0.12977,0.08789,-0.07471,1.00415,0.00,0.00,0.00
909,0.03817,0.00000,-0.01527,0.09155,-0.07300,0.98486,0.00,0.00,0.00
910,0.04580,0.12214,0.01527,0.08691,-0.06958,0.98267,0.00,0.00,0.00
911,-0.03053,-0.11450,-0.17557,0.08643,-0.06543,1.00122,0.00,0.00,0.00
912,-0.05344,0.00000,-0.06870,0.08740,-0.07031,0.99072,0.00,0.00,0.00
913,-0.07634,-0.03817,-0.03053,0.08301,-0.07397,0.99121,0.00,0.00,0.00
914,0.05344,-0.06107,-0.01527,0.08472,-0.07324,0.98462,0.00,0.00,0.00
915,0.09924,0.03053,-0.32824,0.08789,-0.07104,0.98926,0.00,0.00,0.00
916,-0.18321,-0.03053,-0.24427,0.08569,-0.07349,0.98682,0.00,0.00,0.00
917,-0.03053,0.03817,0.06107,0.08838,-0.06909,0.99194,0.00,0.00,0.00
918,0.01527,0.02290,-0.19084,0.08862,-0.07031,0.98633,0.00,0.00,0.00
919,-0.07634,0.01527,-0.19084,0.08936,-0.07446,0.99292,0.00,0.00,0.00
920,-0.04580,-0.18321,-0.13740,0.08765,-0.07544,0.99829,0.00,0.00,0.00
921,0.12977,-0.16794,-0.06870,0.08936,-0.07910,0.99463,0.00,0.00,0.00
922,-0.01527,0.06870,-0.03817,0.08984,-0.06909,0.98682,0.00,0.00,0.00
923,-0.25191,-0.02290,-0.15267,0.09155,-0.07007,0.99292,0.00,0.00,0.00
924,0.04580,-0.05344,-0.20611,0.08667,-0.06909,0.98682,0.00,0.00,0.00
925,-0.04580,0.25954,-0.09924,0.08716,-0.07104,0.99243,0.00,0.00,0.00
926,-0.12977,-0.10687,-0.24427,0.08398,-0.07349,0.98608,0.00,0.00,0.00
927,0.03817,0.07634,-0.09160,0.08862,-0.07080,0.99609,0.00,0.00,0.00
928,-0.28244,-0.17557,-0.12214,0.08813,-0.07153,0.99927,0.00,0.00,0.00
929,-0.06107,-0.13740,-0.19084,0.08618,-0.07568,0.98999,0.00,0.00,0.00
930,0.05344,-0.03817,-0.09160,0.08740,-0.07007,0.99365,0.00,0.00,0.00
931,-0.15267,-0.06107,-0.22901,0.08618,-0.07104,0.99219,0.00,0.00,0.00
932,-0.12214,-0.08397,-0.12214,0.08667,-0.07495,0.99487,0.00,0.00,0.00
933,-0.29008,0.19084,-0.14504,0.08911,-0.07153,0.98755,0.00,0.00,0.00
934,-0.01527,-0.04580,-0.26718,0.08032,-0.06885,0.98926,0.00,0.00,0.00
935,-0.11450,0.12214,-0.25191,0.08789,-0.07227,0.99243,0.00,0.00,0.00
936,-0.03053,0.05344,-0.10687,0.08667,-0.07373,0.98120,0.00,0.00,0.00
937,0.03053,0.03817,-0.07634,0.08447,-0.07397,0.99268,0.00,0.00,0.00
938,0.00763,-0.03053,-0.16031,0.09155,-0.06616,0.99487,0.00,0.00,0.00
939,-0.00763,-0.03817,-0.07634,0.08203,-0.06982,0.99365,0.00,0.00,0.00
940,-0.27481,0.07634,-0.15267,0.09229,-0.06812,0.98657,0.00,0.00,0.00
941,-0.08397,0.02290,-0.18321,0.09131,-0.06763,0.99097,0.00,0.00,0.00
942,-0.03053,-0.07634,-0.22137,0.09229,-0.07422,0.99365,0.00,0.00,0.00
943,-0.03053,0.04580,0.00000,0.08691,-0.07397,0.98975,0.00,0.00,0.00
944,-0.05344,-0.06870,-0.09160,0.08228,-0.07031,0.98730,0.00,0.00,0.00
945,-0.16794,-0.11450,-0.01527,0.08813,-0.07446,0.98706,0.00,0.00,0.00
946,-0.03053,0.07634,-0.19084,0.08496,-0.07544,0.99316,0.00,0.00,0.00
947,-0.07634,0.05344,-0.22901,0.08618,-0.07300,0.99390,0.00,0.00,0.00
948,-0.04580,0.16794,-0.24427,0.08691,-0.07642,0.99438,0.00,0.00,0.00
949,-0.12214,0.03817,-0.02290,0.08643,-0.07593,0.98755,0.00,0.00,0.00
950,0.05344,0.03817,-0.23664,0.08789,-0.07324,0.98975,0.00,0.00,0.00
951,-0.09924,-0.06107,-0.15267,0.08569,-0.07202,0.99219,0.00,0.00,0.00
952,-0.09160,0.08397,-0.18321,0.08838,-0.06494,0.99634,0.00,0.00,0.00
953,-0.17557,-0.22137,-0.08397,0.08765,-0.07886,0.98584,0.00,0.00,0.00
954,-0.16031,0.07634,-0.17557,0.08496,-0.06396,0.99316,0.00,0.00,0.00
955,-0.19084,0.20611,-0.21374,0.09302,-0.07104,0.98901,0.00,0.00,0.00
956,-0.06107,0.03817,-0.10687,0.08911,-0.07080,0.99121,0.00,0.00,0.00
957,0.06870,-0.07634,-0.00763,0.08447,-0.07373,0.99316,0.00,0.00,0.00
958,-0.03817,0.02290,-0.12977,0.08374,-0.07373,0.98193,0.00,0.00,0.00
959,0.07634,0.01527,-0.03053,0.08032,-0.07861,0.98706,0.00,0.00,0.00
960,0.08397,0.12214,-0.17557,0.09009,-0.07300,0.98608,0.00,0.00,0.00
961,0.01527,-0.13740,0.03817,0.08960,-0.07227,0.99194,0.00,0.00,0.00
962,0.07634,0.10687,-0.04580,0.09058,-0.07617,0.99243,0.00,0.00,0.00
963,-0.16794,-0.02290,0.07634,0.08569,-0.07251,0.98657,0.00,0.00,0.00
964,-0.12977,0.09160,-0.08397,0.07886,-0.06934,0.98096,0.00,0.00,0.00
965,0.04580,0.04580,-0.04580,0.08618,-0.07373,0.98291,0.00,0.00,0.00
966,-0.12214,0.15267,-0.15267,0.08862,-0.07642,0.98877,0.00,0.00,0.00
967,-0.16031,0.01527,-0.12214,0.08960,-0.07275,0.98462,0.00,0.00,0.00
968,0.04580,-0.01527,-0.16031,0.08765,-0.07397,0.99756,0.00,0.00,0.00
969,-0.03817,0.12977,-0.18321,0.08789,-0.07178,0.98926,0.00,0.00,0.00
970,0.22901,0.20611,-0.11450,0.08447,-0.07446,0.99463,0.00,0.00,0.00
971,0.05344,0.17557,-0.08397,0.08667,-0.07544,0.98730,0.00,0.00,0.00
972,-0.03053,-0.03053,-0.19847,0.08398,-0.07544,0.99951,0.00,0.00,0.00
973,-0.03053,-0.00763,-0.28244,0.08643,-0.07007,0.99512,0.00,0.00,0.00
974,-0.16794,0.09924,-0.14504,0.08472,-0.07056,0.99683,0.00,0.00,0.00
975,-0.12977,0.25954,-0.14504,0.08130,-0.07690,0.98682,0.00,0.00,0.00
976,-0.05344,0.02290,-0.29008,0.09521,-0.07251,0.98389,0.00,0.00,0.00
977,-0.06107,0.05344,-0.20611,0.09106,-0.06665,0.98047,0.00,0.00,0.00
978,-0.10687,0.14504,-0.09160,0.08740,-0.07495,0.99365,0.00,0.00,0.00
979,-0.19084,0.24427,-0.18321,0.08667,-0.07227,0.99438,0.00,0.00,0.00
980,-0.09924,-0.04580,-0.15267,0.08447,-0.07300,0.98999,0.00,0.00,0.00
981,0.02290,0.09160,-0.16031,0.08838,-0.07275,0.98901,0.00,0.00,0.00
982,-0.08397,-0.24427,-0.22901,0.08301,-0.07153,0.99194,0.00,0.00,0.00
983,0.07634,-0.13740,0.01527,0.08496,-0.06860,0.98975,0.00,0.00,0.00
984,-0.06107,0.01527,-0.19847,0.08252,-0.07544,0.98413,0.00,0.00,0.00
985,0.09160,0.09160,-0.16794,0.09473,-0.07104,0.98999,0.00,0.00,0.00
986,0.07634,-0.19084,-0.17557,0.08643,-0.07129,0.98804,0.00,0.00,0.00
987,-0.02290,0.18321,-0.03053,0.08521,-0.07202,0.98730,0.00,0.00,0.00
988,0.01527,0.04580,-0.19084,0.08765,-0.07715,0.99194,0.00,0.00,0.00
989,-0.06870,0.24427,-0.16794,0.08936,-0.07056,0.98877,0.00,0.00,0.00
990,-0.08397,0.13740,-0.12977,0.08984,-0.07251,0.99487,0.00,0.00,0.00
991,0.09924,0.00763,0.03053,0.08911,-0.07349,0.99121,0.00,0.00,0.00
992,0.03053,0.01527,-0.19084,0.08862,-0.07031,0.98755,0.00,0.00,0.00
993,-0.00763,0.08397,-0.10687,0.09619,-0.07178,0.99292,0.00,0.00,0.00
994,0.04580,0.00000,-0.08397,0.08765,-0.07324,0.98779,0.00,0.00,0.00
995,-0.16794,-0.04580,-0.12214,0.08130,-0.07080,0.99121,0.00,0.00,0.00
996,0.18321,-0.19084,-0.10687,0.08838,-0.06763,0.98706,0.00,0.00,0.00
997,0.03053,0.15267,0.12214,0.08789,-0.07080,0.99487,0.00,0.00,0.00
998,-0.15267,0.11450,-0.06870,0.09277,-0.07397,0.99927,0.00,0.00,0.00
999,-0.21374,0.14504,0.08397,0.09229,-0.07324,0.98706,0.00,0.00,0.00
1000,-0.15267,-0.03053,-0.28244,0.08398,-0.07593,0.99829,0.00,0.00,0.00
1001,-0.09160,-0.14504,-0.38931,0.08911,-0.07153,0.99683,0.00,0.00,0.00
1002,0.03817,0.03817,-0.02290,0.08887,-0.07324,0.99316,0.00,0.00,0.00
1003,-0.02290,0.12977,-0.09924,0.08618,-0.07227,0.98999,0.00,0.00,0.00
1004,0.00763,-0.06870,-0.08397,0.08862,-0.07275,0.98413,0.00,0.00,0.00
1005,0.07634,-0.22901,-0.13740,0.09131,-0.07544,0.98657,0.00,0.00,0.00
1006,0.06107,0.07634,-0.09924,0.08423,-0.07373,0.99927,0.00,0.00,0.00
1007,-0.09160,-0.19084,-0.01527,0.08643,-0.06958,0.99121,0.00,0.00,0.00
1008,-0.23664,-0.20611,-0.07634,0.08203,-0.07178,0.98511,0.00,0.00,0.00
1009,-0.11450,-0.09160,-0.17557,0.08691,-0.06934,0.99121,0.00,0.00,0.00
1010,0.04580,0.02290,-0.16031,0.08716,-0.06812,0.99878,0.00,0.00,0.00
1011,-0.13740,-0.16031,-0.34351,0.08398,-0.07593,0.99023,0.00,0.00,0.00
1012,-0.16031,-0.10687,-0.16031,0.08765,-0.07861,0.98633,0.00,0.00,0.00
1013,-0.01527,-0.18321,-0.09924,0.08545,-0.06592,0.98804,0.00,0.00,0.00
1014,0.23664,-0.05344,-0.05344,0.08301,-0.07495,0.98584,0.00,0.00,0.00
1015,-0.03817,-0.00763,-0.03053,0.08911,-0.06909,0.98486,0.00,0.00,0.00
1016,0.04580,0.09924,-0.24427,0.08105,-0.07471,0.98584,0.00,0.00,0.00
1017,-0.13740,-0.02290,0.00000,0.08765,-0.06982,0.99390,0.00,0.00,0.00
1018,0.14504,-0.12977,-0.12977,0.08667,-0.07178,0.99170,0.00,0.00,0.00
1019,0.00000,0.06870,-0.16031,0.09155,-0.07373,0.99463,0.00,0.00,0.00
1020,0.08397,-0.07634,-0.12214,0.08594,-0.07544,0.99854,0.00,0.00,0.00
1021,-0.16031,0.09924,-0.08397,0.09448,-0.07739,0.98950,0.00,0.00,0.00
1022,-0.06870,0.03817,0.00763,0.08838,-0.07251,0.98901,0.00,0.00,0.00
1023,-0.30534,0.05344,-0.09924,0.09058,-0.07471,0.98877,0.00,0.00,0.00
1024,-0.03053,0.04580,-0.03053,0.08325,-0.07104,0.98584,0.00,0.00,0.00
1025,-0.00763,-0.02290,-0.27481,0.08569,-0.07422,0.99512,0.00,0.00,0.00
1026,0.10687,-0.01527,-0.15267,0.08643,-0.07300,1.00000,0.00,0.00,0.00
1027,-0.14504,0.12214,-0.06107,0.09204,-0.07104,0.99121,0.00,0.00,0.00
1028,-0.02290,-0.16031,-0.07634,0.08252,-0.07080,0.98511,0.00,0.00,0.00
1029,-0.03817,-0.05344,-0.07634,0.08911,-0.07202,0.99390,0.00,0.00,0.00
1030,0.00763,-0.06107,-0.16031,0.08716,-0.06934,0.99536,0.00,0.00,0.00
1031,-0.06870,0.11450,-0.19847,0.08765,-0.06787,0.99414,0.00,0.00,0.00
1032,0.00763,-0.05344,-0.12214,0.09106,-0.07397,0.99512,0.00,0.00,0.00
1033,0.07634,-0.11450,-0.02290,0.08765,-0.07227,0.99048,0.00,0.00,0.00
1034,0.14504,-0.32824,-0.04580,0.09009,-0.07104,0.98999,0.00,0.00,0.00
1035,0.00763,-0.28244,-0.19084,0.08032,-0.07178,0.99658,0.00,0.00,0.00
1036,0.08397,0.06870,-0.09160,0.08130,-0.06787,0.99072,0.00,0.00,0.00
1037,-0.09160,-0.08397,-0.07634,0.09082,-0.07007,0.99365,0.00,0.00,0.00
1038,0.20611,0.06870,-0.11450,0.08569,-0.07153,0.99341,0.00,0.00,0.00
1039,0.05344,-0.09160,-0.14504,0.08813,-0.07617,0.98779,0.00,0.00,0.00
1040,0.16794,-0.19084,-0.28244,0.08545,-0.07104,0.99194,0.00,0.00,0.00
1041,0.01527,-0.25954,-0.16794,0.08984,-0.07056,0.98145,0.00,0.00,0.00
1042,-0.00763,-0.29008,-0.04580,0.08716,-0.07031,0.99048,0.00,0.00,0.00
1043,0.03053,-0.16031,-0.25191,0.09326,-0.07324,0.98706,0.00,0.00,0.00
1044,0.00763,-0.32824,-0.07634,0.08496,-0.06860,0.98511,0.00,0.00,0.00
1045,0.19847,-0.25954,-0.14504,0.08740,-0.07007,0.98999,0.00,0.00,0.00
1046,0.30534,-0.25954,-0.05344,0.07983,-0.07056,0.99170,0.00,0.00,0.00
1047,0.07634,0.04580,-0.23664,0.08081,-0.07104,0.98901,0.00,0.00,0.00
1048,0.07634,-0.04580,-0.21374,0.08008,-0.07202,0.99146,0.00,0.00,0.00
1049,0.06870,-0.30534,-0.21374,0.09058,-0.07227,0.98755,0.00,0.00,0.00
1050,0.09924,-0.03817,-0.16031,0.08545,-0.07983,0.98950,0.00,0.00,0.00
1051,0.30534,-0.20611,-0.05344,0.08594,-0.06104,0.99341,0.00,0.00,0.00
1052,-0.04580,-0.25954,-0.17557,0.08398,-0.07642,0.99268,0.00,0.00,0.00
1053,0.16794,-0.40458,-0.10687,0.08545,-0.06812,0.98682,0.00,0.00,0.00
1054,0.16031,-0.20611,-0.13740,0.08862,-0.06689,0.98437,0.00,0.00,0.00
1055,0.04580,-0.22137,-0.08397,0.09326,-0.07397,0.98828,0.00,0.00,0.00
1056,-0.12214,-0.00763,-0.19084,0.08789,-0.07104,0.98706,0.00,0.00,0.00
1057,-0.12977,-0.12977,0.03817,0.08813,-0.06958,0.99219,0.00,0.00,0.00
1058,0.02290,0.01527,-0.04580,0.08911,-0.06372,0.98608,0.00,0.00,0.00
1059,-0.05344,-0.01527,-0.24427,0.08716,-0.07202,0.99585,0.00,0.00,0.00
1060,-0.13740,-0.01527,-0.03053,0.08789,-0.06714,0.98706,0.00,0.00,0.00
1061,0.00000,0.12977,-0.15267,0.08496,-0.07544,0.98535,0.00,0.00,0.00
1062,0.09924,0.00763,-0.19847,0.08667,-0.06958,0.99512,0.00,0.00,0.00
1063,0.02290,0.13740,-0.00763,0.09131,-0.07080,0.98853,0.00,0.00,0.00
1064,0.09924,-0.03053,-0.15267,0.08569,-0.07544,0.98877,0.00,0.00,0.00
1065,-0.12214,0.12214,-0.07634,0.09448,-0.07202,0.99243,0.00,0.00,0.00
1066,0.08397,0.05344,-0.30534,0.08911,-0.06787,0.98535,0.00,0.00,0.00
1067,-0.08397,0.08397,-0.19847,0.09033,-0.07227,0.99390,0.00,0.00,0.00
1068,0.20611,0.50382,-0.29771,0.09399,-0.07495,0.98730,0.00,0.00,0.00
1069,0.16031,0.12977,-0.22137,0.09033,-0.07300,0.99341,0.00,0.00,0.00
1070,0.12977,0.50382,-0.19084,0.08350,-0.06909,0.99316,0.00,0.00,0.00
1071,-0.09924,0.42748,-0.23664,0.08618,-0.07544,0.99365,0.00,0.00,0.00
1072,0.25191,0.31298,-0.13740,0.08813,-0.06641,0.98682,0.00,0.00,0.00
1073,0.22137,0.09924,-0.17557,0.08667,-0.07690,0.99243,0.00,0.00,0.00
1074,0.80153,-0.15267,-0.06870,0.08789,-0.07715,0.98608,0.00,0.00,0.00
1075,0.80916,-0.14504,-0.10687,0.08594,-0.06982,0.99097,0.00,0.00,0.00
1076,0.83206,-0.51908,0.03817,0.09180,-0.07910,0.99316,0.00,0.00,0.00
1077,1.18321,-0.35878,-0.18321,0.09131,-0.06738,0.99121,0.00,0.00,0.00
1078,0.92366,-0.22901,-0.01527,0.08716,-0.06836,0.99683,0.00,0.00,0.00
1079,0.87023,-0.50382,-0.02290,0.09619,-0.07104,0.98462,0.00,0.00,0.00
1080,0.46565,-0.14504,0.00000,0.09082,-0.06519,0.99170,0.00,0.00,0.00
1081,0.71756,-0.03817,0.10687,0.08716,-0.06812,0.98535,0.00,0.00,0.00
1082,0.45038,-0.58779,-0.06870,0.08447,-0.07104,0.98877,0.00,0.00,0.00
1083,0.39695,-0.22901,-0.05344,0.08789,-0.07104,0.99146,0.00,0.00,0.00
1084,0.75573,-0.25191,-0.22137,0.08643,-0.06421,0.98267,0.00,0.00,0.00
1085,0.79389,0.09924,0.04580,0.08838,-0.07007,0.99316,0.00,0.00,0.00
1086,0.56489,-0.30534,-0.06107,0.08667,-0.07129,0.98706,0.00,0.00,0.00
1087,0.60305,-0.41221,-0.01527,0.08936,-0.06958,0.98267,0.00,0.00,0.00
1088,0.34351,-0.10687,-0.06870,0.08838,-0.06665,0.98413,0.00,0.00,0.00
1089,0.09924,-0.44275,-0.05344,0.09277,-0.06641,0.98486,0.00,0.00,0.00
1090,0.09924,-0.12214,-0.20611,0.09326,-0.07300,0.97974,0.00,0.00,0.00
1091,-0.00763,0.27481,-0.16794,0.08716,-0.06079,0.99243,0.00,0.00,0.00
1092,-0.16794,0.11450,-0.21374,0.08667,-0.07446,0.98828,0.00,0.00,0.00
1093,-0.34351,0.24427,-0.22137,0.09180,-0.06787,0.99561,0.00,0.00,0.00
1094,-0.19847,-0.01527,-0.33588,0.08667,-0.06616,0.99512,0.00,0.00,0.00
1095,-0.29008,0.10687,-0.06870,0.08911,-0.06934,0.99609,0.00,0.00,0.00
1096,0.10687,-0.18321,-0.16794,0.08521,-0.07764,0.99707,0.00,0.00,0.00
1097,-0.32061,-0.04580,-0.13740,0.10107,-0.06860,0.97900,0.00,0.00,0.00
1098,-0.19847,0.04580,-0.03053,0.08691,-0.06934,0.98828,0.00,0.00,0.00
1099,-0.21374,-0.08397,-0.19847,0.09399,-0.07129,0.98560,0.00,0.00,0.00
1100,-0.24427,0.57252,-0.02290,0.09839,-0.06494,0.97949,0.00,0.00,0.00
1101,-0.25954,0.58015,0.07634,0.08496,-0.06445,0.98877,0.00,0.00,0.00
1102,-0.18321,1.03817,-0.12214,0.09790,-0.07495,0.96924,0.00,0.00,0.00
1103,-0.80916,3.07634,0.00000,0.11133,-0.04712,0.94995,0.00,0.00,0.00
1104,-2.16794,2.93130,0.41221,0.00195,-0.10742,1.06763,0.00,0.00,0.00
1105,-0.14504,1.05344,0.28244,0.11646,-0.05884,0.97656,0.00,0.00,0.00
1106,0.00000,1.38931,0.30534,0.08301,-0.05542,0.99707,0.00,0.00,0.00
1107,-0.30534,0.89313,0.25191,0.08008,-0.07446,0.98657,0.00,0.00,0.00
1108,-0.18321,1.27481,0.21374,0.08667,-0.07617,0.98828,0.00,0.00,0.00
1109,0.06107,1.80153,0.13740,0.08838,-0.06567,0.98950,0.00,0.00,0.00
1110,-0.70229,1.06107,0.26718,0.08496,-0.06592,0.97974,0.00,0.00,0.00
1111,-0.33588,2.12214,0.35115,0.08643,-0.08032,0.99243,0.00,0.00,0.00
1112,-0.27481,1.10687,0.19084,0.07251,-0.06470,1.00562,0.00,0.00,0.00
1113,-0.47328,1.08397,0.38931,0.08984,-0.07080,0.98755,0.00,0.00,0.00
1114,0.05344,0.78626,0.38168,0.08643,-0.07593,0.98706,0.00,0.00,0.00
1115,-0.22901,0.74046,0.39695,0.09424,-0.06030,0.98560,0.00,0.00,0.00
1116,-0.80153,0.29008,0.32824,0.07886,-0.06177,1.00464,0.00,0.00,0.00
1117,-1.25954,-0.14504,0.37405,0.08301,-0.07178,1.00122,0.00,0.00,0.00
1118,-0.93130,-0.43511,0.35115,0.07300,-0.08008,1.01074,0.00,0.00,0.00
1119,-0.61832,-1.25191,0.16031,0.08350,-0.07031,1.00732,0.00,0.00,0.00
1120,-0.22137,-1.48092,0.19084,0.08643,-0.08228,0.98389,0.00,0.00,0.00
1121,-0.00763,-1.38931,0.32824,0.09448,-0.06641,0.99121,0.00,0.00,0.00
1122,0.09160,-1.49618,0.06107,0.09692,-0.07178,0.98877,0.00,0.00,0.00
1123,0.30534,-1.09160,0.09924,0.08301,-0.07104,0.98926,0.00,0.00,0.00
1124,0.67939,-0.99237,-0.06107,0.08325,-0.08472,0.99707,0.00,0.00,0.00
1125,1.06870,-1.29008,-0.06107,0.09204,-0.07568,0.99438,0.00,0.00,0.00
1126,1.36641,-1.59542,0.00000,0.08496,-0.07886,0.99194,0.00,0.00,0.00
1127,1.41985,-1.22137,-0.08397,0.08984,-0.07104,0.99414,0.00,0.00,0.00
1128,1.09160,-1.10687,-0.17557,0.08228,-0.06787,1.00000,0.00,0.00,0.00
1129,1.21374,-1.19084,-0.24427,0.08813,-0.07715,0.99561,0.00,0.00,0.00
1130,1.52672,-1.49618,-0.15267,0.07983,-0.07397,1.00635,0.00,0.00,0.00
1131,1.67939,-2.06870,-0.39695,0.08325,-0.07739,0.99438,0.00,0.00,0.00
1132,1.77863,-2.29008,-0.16794,0.09326,-0.07324,0.99268,0.00,0.00,0.00
1133,1.56489,-1.91603,-0.61832,0.09473,-0.06812,0.98779,0.00,0.00,0.00
1134,1.48092,-1.47328,-0.46565,0.08691,-0.06641,0.97974,0.00,0.00,0.00
1135,1.16031,-1.65649,-0.56489,0.08374,-0.06714,0.98364,0.00,0.00,0.00
1136,1.25954,-1.48092,-0.50382,0.09082,-0.06836,0.99219,0.00,0.00,0.00
1137,1.14504,-1.56489,-0.58015,0.08838,-0.06177,0.99976,0.00,0.00,0.00
1138,1.25191,-1.91603,-0.66412,0.08374,-0.06738,0.99976,0.00,0.00,0.00
1139,0.96947,-1.75573,-0.52672,0.09473,-0.06738,0.98193,0.00,0.00,0.00
1140,1.41221,-1.77099,-0.67176,0.08374,-0.06787,0.99390,0.00,0.00,0.00
1141,1.27481,-2.19847,-0.66412,0.08936,-0.07007,0.98071,0.00,0.00,0.00
1142,1.80916,-1.40458,-0.62595,0.09253,-0.07324,0.98950,0.00,0.00,0.00
1143,2.13740,-2.12977,-0.65649,0.09009,-0.07178,0.98853,0.00,0.00,0.00
1144,2.47328,-2.09160,-0.60305,0.09546,-0.07568,0.97925,0.00,0.00,0.00
1145,2.29008,-2.05344,-0.48855,0.09204,-0.06372,0.98853,0.00,0.00,0.00
1146,2.10687,-1.99237,-0.48855,0.09863,-0.06372,0.96997,0.00,0.00,0.00
1147,1.96947,-1.20611,-0.66412,0.09570,-0.06470,0.98389,0.00,0.00,0.00
1148,2.14504,-1.26718,-0.57252,0.09766,-0.07104,0.98584,0.00,0.00,0.00
1149,2.63359,-0.87023,-0.64885,0.09570,-0.06616,0.97974,0.00,0.00,0.00
1150,2.52672,-0.77099,-0.57252,0.09570,-0.06323,0.99634,0.00,0.00,0.00
1151,2.61832,-0.93893,-0.42748,0.09155,-0.06250,0.98047,0.00,0.00,0.00
1152,2.39695,-0.55725,-0.48092,0.09595,-0.06104,0.98511,0.00,0.00,0.00
1153,2.48092,-0.76336,-0.29008,0.09644,-0.06470,0.98779,0.00,0.00,0.00
1154,2.00763,0.21374,-0.48855,0.10498,-0.05225,0.97339,0.00,0.00,0.00
1155,2.61832,0.95420,-0.46565,0.09668,-0.06055,0.98633,0.00,0.00,0.00
1156,2.29771,1.40458,-0.45038,0.10010,-0.05591,0.97949,0.00,0.00,0.00
1157,2.00000,2.41221,-0.36641,0.10864,-0.05640,0.98291,0.00,0.00,0.00
1158,2.25191,1.82443,-0.59542,0.08447,-0.05688,0.99512,0.00,0.00,0.00
1159,1.87786,2.51145,-0.61832,0.09839,-0.05371,0.97192,0.00,0.00,0.00
1160,2.29771,3.19084,-0.71756,0.09399,-0.06128,0.97876,0.00,0.00,0.00
1161,2.53435,3.54198,-0.74046,0.09131,-0.06299,0.98999,0.00,0.00,0.00
1162,2.29008,3.83206,-0.64885,0.09619,-0.06226,0.98975,0.00,0.00,0.00
1163,2.58779,4.54962,-0.61069,0.09766,-0.06519,0.98608,0.00,0.00,0.00
1164,2.89313,4.80153,-0.41221,0.09424,-0.06787,0.97998,0.00,0.00,0.00
1165,3.40458,6.36641,-0.69466,0.11060,-0.05469,0.95483,0.00,0.00,0.00
1166,3.89313,7.27481,-0.72519,0.08911,-0.05737,0.98975,0.00,0.00,0.00
1167,3.83969,7.77863,-0.90076,0.10059,-0.04736,0.97583,0.00,0.00,0.00
1168,4.03053,8.46565,-0.78626,0.08130,-0.06348,0.98950,0.00,0.00,0.00
1169,3.91603,7.92366,-0.93893,0.08521,-0.04883,0.99194,0.00,0.00,0.00
1170,3.81679,8.83969,-1.07634,0.08765,-0.05786,0.97607,0.00,0.00,0.00
1171,2.86260,7.13740,-0.90840,0.06470,-0.05078,1.04199,0.00,0.00,0.00
1172,2.83969,7.69466,-0.90076,0.10522,-0.05493,0.93970,0.00,0.00,0.00
1173,2.80916,8.69466,-0.36641,0.04443,-0.03418,1.03906,0.00,0.00,0.00
1174,2.45038,4.48092,-0.70992,0.06250,-0.03931,0.99829,0.00,0.00,0.00
1175,2.38931,4.60305,-0.38931,0.07959,-0.05249,0.98584,0.00,0.00,0.00
1176,1.88550,4.25191,-0.34351,0.08447,-0.05054,1.01001,0.00,0.00,0.00
1177,1.48092,4.93130,-1.09924,0.08521,-0.06372,0.97583,0.00,0.00,0.00
1178,2.33588,7.69466,-1.21374,0.10425,-0.05835,0.95776,0.00,0.00,0.00
1179,2.87786,9.70992,-0.89313,0.08813,-0.06372,0.96704,0.00,0.00,0.00
1180,3.43511,11.30534,-0.64885,0.08032,-0.05054,0.99097,0.00,0.00,0.00
1181,3.96947,12.57252,-0.62595,0.08667,-0.05811,0.98877,0.00,0.00,0.00
1182,5.14504,13.84733,0.00000,0.08838,-0.04980,0.97290,0.00,0.00,0.00
1183,5.74046,15.12977,0.41985,0.08496,-0.05615,0.97900,0.00,0.00,0.00
1184,5.97710,18.44275,0.81679,0.08105,-0.05078,0.96899,0.00,0.00,0.00
1185,7.13740,22.00000,1.06107,0.09204,-0.05078,0.94629,0.00,0.00,0.00
1186,7.77863,25.42748,0.64885,0.08740,-0.03223,0.95264,0.00,0.00,0.00
1187,8.16030,32.22137,0.51145,0.10815,-0.04663,0.93164,0.00,0.00,0.00
1188,9.33588,36.96947,2.40458,0.07373,-0.01660,0.94507,0.00,0.00,0.00
1189,9.86260,42.59542,2.53435,0.10278,-0.05396,0.91577,0.00,0.00,0.00
1190,11.38931,48.48855,3.34351,0.08130,-0.04492,0.94165,0.00,0.00,0.00
1191,12.41221,53.75572,4.22901,0.07349,-0.06812,0.96973,0.00,0.00,0.00
1192,15.41221,61.19847,4.25191,0.11548,-0.12036,0.91724,0.00,0.00,0.00
1193,17.96947,70.51908,6.82443,0.04492,-0.05835,0.97412,0.00,0.00,0.00
1194,24.09160,83.70993,4.74046,0.12646,-0.07617,0.85400,0.00,0.00,0.00
1195,28.11450,88.90840,3.93893,0.00098,-0.03320,0.97754,0.00,0.00,0.00
1196,30.10687,94.70230,3.12977,0.01587,-0.05298,0.92871,0.00,0.00,0.00
1197,33.55725,104.64886,1.95420,0.03418,-0.07642,0.93945,0.00,0.00,0.00
1198,37.41221,115.68702,1.09924,-0.00562,-0.04419,0.94287,0.00,0.00,0.00
1199,39.09160,121.96947,-0.48092,-0.03833,-0.01440,0.99268,0.00,0.00,0.00
1200,41.40458,129.74046,-4.29771,-0.02051,-0.05737,1.00122,0.00,0.00,0.00
1201,47.87023,141.94656,-6.70992,-0.00610,0.02051,0.89746,0.00,0.00,0.00
1202,48.38168,157.75572,-10.01527,-0.05786,-0.02686,0.93164,0.00,0.00,0.00
1203,54.53435,173.15266,-20.41985,-0.12158,-0.14014,0.92651,0.00,0.00,0.00
1204,60.57252,190.85496,-31.22901,-0.04468,-0.01929,0.92139,0.00,0.00,0.00
1205,63.25191,214.92366,-39.09160,-0.10571,-0.00586,0.91650,0.00,0.00,0.00
1206,69.35878,241.41984,-47.41984,-0.10693,-0.06787,0.88892,0.00,0.00,0.00
1207,80.88550,250.12977,-54.96183,-0.06885,-0.06177,0.91406,0.00,0.00,0.00
1208,95.58016,250.12977,-64.20611,-0.10742,-0.10083,0.83911,0.00,0.00,0.00
1209,112.03817,250.12977,-73.98474,-0.20337,-0.05566,0.80347,0.00,0.00,0.00
1210,123.70230,250.12977,-82.25191,-0.24829,0.01758,0.79053,0.00,0.00,0.00
1211,137.64884,250.12977,-94.45802,-0.31445,-0.05688,0.58765,0.00,0.00,0.00
1212,148.30534,250.12977,-101.21374,-0.33130,-0.05249,0.66553,0.00,0.00,0.00
1213,155.96946,250.12977,-103.66413,-0.44092,0.02539,0.79541,0.00,0.00,0.00
1214,143.77862,250.12977,-105.12977,-0.76465,0.24951,1.16699,0.00,0.00,0.00
1215,97.32825,250.12977,-106.87786,-0.93213,0.52417,1.99994,0.00,0.00,0.00
1216,32.17557,250.12977,-106.22901,-1.12476,0.76440,1.99994,0.00,0.00,0.00
1217,-22.25954,158.16030,-84.51908,-1.26855,0.99072,1.99994,0.00,0.00,0.00
1218,-61.60305,-0.35115,-59.29008,-0.97046,0.86816,1.99994,0.00,0.00,0.00
1219,-90.74046,-97.33588,-44.49618,-0.35376,0.61743,1.99994,0.00,0.00,0.00
1220,-101.43511,-148.16793,-31.21374,-0.17163,0.49878,1.84741,0.00,0.00,0.00
1221,-108.50382,-175.12977,-21.29008,-0.02271,0.32227,1.08813,0.00,0.00,0.00
1222,-115.69466,-173.31297,-18.80916,0.09375,0.17285,0.55249,0.00,0.00,0.00
1223,-115.16794,-154.99237,-17.98473,0.15063,0.08838,0.25537,0.00,0.00,0.00
1224,-107.01527,-137.50381,-17.41222,0.06128,-0.00903,0.28345,0.00,0.00,0.00
1225,-95.26718,-134.33587,-20.60305,-0.01294,-0.06836,0.40210,0.00,0.00,0.00
1226,-78.18321,-133.56488,-24.46565,0.01050,-0.10254,0.55762,0.00,0.00,0.00
1227,-55.64885,-136.08396,-26.61832,-0.03540,-0.03027,0.83398,0.00,0.00,0.00
1228,-37.96947,-154.48091,-25.74046,-0.18457,0.09473,1.16772,0.00,0.00,0.00
1229,-32.63359,-178.59541,-22.58015,-0.25098,0.21851,1.27515,0.00,0.00,0.00
1230,-34.93893,-204.18321,-16.02290,-0.27026,0.30127,1.28174,0.00,0.00,0.00
1231,-39.83969,-224.14503,-8.37405,-0.29395,0.33081,1.24194,0.00,0.00,0.00
1232,-40.95420,-239.17556,-0.67939,-0.34473,0.27441,1.21167,0.00,0.00,0.00
1233,-38.88550,-250.13740,4.93130,-0.40283,0.20532,1.20386,0.00,0.00,0.00
1234,-36.59542,-250.13740,7.42748,-0.46387,0.10400,1.17212,0.00,0.00,0.00
1235,-31.18321,-250.13740,5.12214,-0.49072,-0.02808,1.07324,0.00,0.00,0.00
1236,-22.87786,-250.13740,-0.81679,-0.49341,-0.13428,0.96729,0.00,0.00,0.00
1237,-13.58779,-250.13740,-8.44275,-0.48804,-0.21216,0.92187,0.00,0.00,0.00
1238,-3.90076,-250.13740,-17.33588,-0.53442,-0.20923,0.95923,0.00,0.00,0.00
1239,3.82443,-250.13740,-24.07634,-0.53809,-0.12476,0.99829,0.00,0.00,0.00
1240,7.97710,-250.13740,-23.59542,-0.58545,0.09009,1.10449,0.00,0.00,0.00
1241,5.48092,-247.49618,-15.67176,-0.67432,0.37280,1.18677,0.00,0.00,0.00
1242,0.64885,-244.07633,0.89313,-0.67773,0.54077,1.13647,0.00,0.00,0.00
1243,2.32824,-233.22900,20.19847,-0.63989,0.55322,1.03125,0.00,0.00,0.00
1244,11.77099,-214.19847,38.81679,-0.56567,0.52490,1.00806,0.00,0.00,0.00
1245,27.91603,-196.93130,56.12977,-0.61914,0.43726,1.20532,0.00,0.00,0.00
1246,41.78626,-191.68702,70.24428,-0.70679,0.40723,1.36694,0.00,0.00,0.00
1247,50.70992,-192.18321,83.67939,-0.72412,0.32593,1.44653,0.00,0.00,0.00
1248,55.11450,-191.03816,91.52672,-0.71851,0.15552,1.43433,0.00,0.00,0.00
1249,52.58779,-188.44274,95.96183,-0.71973,-0.01660,1.39331,0.00,0.00,0.00
1250,46.71755,-184.47328,94.80153,-0.69189,-0.17358,1.22778,0.00,0.00,0.00
1251,37.08397,-171.77862,89.36641,-0.62207,-0.28906,1.05151,0.00,0.00,0.00
1252,26.21374,-153.13740,82.51145,-0.57837,-0.40063,1.01733,0.00,0.00,0.00
1253,16.22901,-139.75572,72.00764,-0.62500,-0.43921,1.09570,0.00,0.00,0.00
1254,6.19084,-130.81678,61.64885,-0.61548,-0.42383,1.13428,0.00,0.00,0.00
1255,-4.25954,-121.70993,51.56488,-0.63330,-0.32300,1.16211,0.00,0.00,0.00
1256,-17.47328,-116.10688,43.76336,-0.62598,-0.19165,1.14551,0.00,0.00,0.00
1257,-22.48855,-100.28244,38.36641,-0.51416,-0.13037,1.14307,0.00,0.00,0.00
1258,-15.02290,-100.09924,37.25191,-0.72900,-0.05542,1.48169,0.00,0.00,0.00
1259,-10.95420,-119.29008,38.23664,-0.76270,0.06909,1.44995,0.00,0.00,0.00
1260,-10.48855,-124.32061,38.34351,-0.61499,0.05127,1.06689,0.00,0.00,0.00
1261,-9.58015,-118.61069,34.58779,-0.65967,-0.07642,0.79297,0.00,0.00,0.00
1262,-1.51908,-106.45038,26.48092,-0.63354,-0.22681,0.49829,0.00,0.00,0.00
1263,8.70229,-84.55725,15.32061,-0.56201,-0.34326,0.34424,0.00,0.00,0.00
1264,21.60305,-60.05344,2.50382,-0.60254,-0.36523,0.40308,0.00,0.00,0.00
1265,27.91603,-44.36641,-9.54198,-0.64160,-0.32983,0.53564,0.00,0.00,0.00
1266,26.11450,-33.06870,-20.10687,-0.64453,-0.27197,0.60254,0.00,0.00,0.00
1267,16.36641,-23.36641,-28.17557,-0.60767,-0.22339,0.56787,0.00,0.00,0.00
1268,4.09160,-9.80916,-35.31298,-0.55151,-0.17822,0.48267,0.00,0.00,0.00
1269,-3.69466,8.13740,-39.75572,-0.46729,-0.12354,0.43066,0.00,0.00,0.00
1270,19.69466,40.36641,-7.29008,-0.98535,1.37183,-0.62158,0.00,0.00,0.00
1271,-79.06871,87.63359,9.23664,1.04175,0.51660,0.09180,0.00,0.00,0.00
1272,-60.97710,105.10688,3.54962,0.93506,-0.23926,0.64331,0.00,0.00,0.00
1273,-7.93130,132.22900,15.05344,0.60669,0.26831,0.52686,0.00,0.00,0.00
1274,9.22137,156.99237,28.77099,0.26831,0.30591,0.47168,0.00,0.00,0.00
1275,9.03053,158.14503,34.70992,0.05762,0.08154,0.83154,0.00,0.00,0.00
1276,1.50382,155.16030,32.59542,0.31396,-0.13647,0.92407,0.00,0.00,0.00
1277,-17.32061,165.87786,24.88550,0.01001,-0.42163,1.27344,0.00,0.00,0.00
1278,-17.47328,126.99237,15.46565,-0.28833,-0.61475,1.58472,0.00,0.00,0.00
1279,-5.89313,97.96183,5.25191,-0.01685,-0.47900,1.34229,0.00,0.00,0.00
1280,-4.40458,95.93130,3.42748,0.17944,-0.11499,0.96411,0.00,0.00,0.00
1281,-2.81679,113.06107,3.55725,0.27100,-0.05835,0.90869,0.00,0.00,0.00
1282,13.73282,128.03816,7.17557,0.12109,0.04761,1.41211,0.00,0.00,0.00
1283,-8.94656,104.69466,13.40458,-0.21021,0.20020,1.99994,0.00,0.00,0.00
1284,-50.49618,32.73283,6.32061,-0.67090,-0.17285,1.99994,0.00,0.00,0.00
1285,-23.83206,-32.07633,1.15267,-0.17847,-0.45142,1.50098,0.00,0.00,0.00
1286,-10.89313,-13.90076,1.30534,0.41797,-0.15063,0.33887,0.00,0.00,0.00
1287,-6.67176,13.63359,1.74046,0.24438,-0.07544,0.84033,0.00,0.00,0.00
1288,-9.09924,6.45038,1.32061,-0.03076,-0.06738,1.34888,0.00,0.00,0.00
1289,-9.82443,-7.80916,1.00000,0.06519,-0.10645,1.11230,0.00,0.00,0.00
1290,-8.53435,-0.11450,1.44275,0.22583,-0.09814,0.81641,0.00,0.00,0.00
1291,-7.61832,8.03053,2.02290,0.14673,-0.08960,0.96143,0.00,0.00,0.00
1292,-7.35878,5.09924,1.49618,0.06348,-0.12231,1.08643,0.00,0.00,0.00
1293,-6.64122,1.58779,0.96183,0.10767,-0.09619,1.01855,0.00,0.00,0.00
1294,-6.46565,3.11450,1.12977,0.12866,-0.10278,0.97607,0.00,0.00,0.00
1295,-5.36641,4.33588,1.02290,0.12329,-0.12256,0.97827,0.00,0.00,0.00
1296,-3.43511,5.14504,0.48855,0.10937,-0.12354,1.00781,0.00,0.00,0.00
1297,-2.00000,3.22137,0.14504,0.08398,-0.11035,1.02148,0.00,0.00,0.00
1298,-1.26718,1.68702,0.00000,0.10693,-0.10205,0.99927,0.00,0.00,0.00
1299,0.77099,1.41985,0.33588,0.09473,-0.15063,1.00879,0.00,0.00,0.00
1300,4.36641,-0.02290,0.03817,0.10449,-0.13452,0.97754,0.00,0.00,0.00
1301,5.16794,0.80916,0.35115,0.11816,-0.09912,0.96948,0.00,0.00,0.00
1302,4.09924,0.48092,0.35115,0.09204,-0.07886,1.01636,0.00,0.00,0.00
1303,1.97710,-0.40458,0.32061,0.11914,-0.07202,0.99561,0.00,0.00,0.00
1304,0.28244,1.20611,0.48855,0.11572,-0.08276,0.97583,0.00,0.00,0.00
1305,-1.57252,1.72519,0.61069,0.10474,-0.07959,0.99561,0.00,0.00,0.00
1306,-3.36641,1.60305,0.77099,0.10596,-0.07349,1.02148,0.00,0.00,0.00
1307,-5.78626,-0.12214,0.92366,0.06470,-0.09253,1.05835,0.00,0.00,0.00
1308,-6.00000,-2.74809,1.00763,0.10400,-0.09302,0.98901,0.00,0.00,0.00
1309,-6.75573,-1.09160,0.96183,0.12891,-0.08813,0.96362,0.00,0.00,0.00
1310,-4.87786,-0.27481,1.06870,0.10425,-0.13281,0.97632,0.00,0.00,0.00
1311,-3.83969,0.01527,1.09160,0.11719,-0.10278,0.97388,0.00,0.00,0.00
1312,-4.36641,0.38931,0.84733,0.09692,-0.10742,0.98511,0.00,0.00,0.00
1313,-3.86260,0.13740,0.77099,0.10669,-0.11743,1.00366,0.00,0.00,0.00
1314,-3.69466,-0.51145,0.96183,0.11206,-0.12109,0.98145,0.00,0.00,0.00
1315,-2.26718,1.90840,0.69466,0.13647,-0.11475,0.97583,0.00,0.00,0.00
1316,-2.75573,2.79389,0.31298,0.11060,-0.10986,0.99146,0.00,0.00,0.00
1317,-2.07634,3.12214,0.16031,0.11157,-0.10205,0.98096,0.00,0.00,0.00
1318,-3.09924,2.67176,-0.14504,0.10303,-0.09766,0.99292,0.00,0.00,0.00
1319,-3.22137,4.38931,-0.17557,0.12988,-0.11108,0.97314,0.00,0.00,0.00
1320,-2.98473,5.67939,-0.84733,0.11108,-0.11890,0.96680,0.00,0.00,0.00
1321,-3.19084,6.30534,-0.64885,0.11157,-0.10498,0.97168,0.00,0.00,0.00
1322,-3.98473,6.58015,-0.83206,0.10278,-0.08813,0.99023,0.00,0.00,0.00
1323,-4.44275,5.46565,-1.00000,0.09473,-0.10669,0.99609,0.00,0.00,0.00
1324,-4.97710,4.47328,-0.64885,0.07837,-0.11206,1.00977,0.00,0.00,0.00
1325,-3.76336,3.62595,-0.76336,0.11084,-0.13477,0.95337,0.00,0.00,0.00
1326,-1.91603,5.58779,-0.74809,0.12183,-0.11401,0.95776,0.00,0.00,0.00
1327,-1.87786,5.95420,-0.75573,0.09009,-0.12280,0.97314,0.00,0.00,0.00
1328,-0.21374,4.99237,-0.72519,0.09058,-0.13818,0.99194,0.00,0.00,0.00
1329,1.76336,5.03817,-0.77863,0.10498,-0.14404,0.96729,0.00,0.00,0.00
1330,4.19084,4.98473,-0.89313,0.09888,-0.16187,0.95312,0.00,0.00,0.00
1331,8.31298,5.51145,-1.24427,0.10156,-0.16821,0.95630,0.00,0.00,0.00
1332,10.51908,5.28244,-1.29008,0.09546,-0.12329,0.98071,0.00,0.00,0.00
1333,10.56488,4.45038,-1.20611,0.07788,-0.09961,1.01172,0.00,0.00,0.00
1334,10.69466,3.70229,-1.01527,0.09033,-0.11230,0.98315,0.00,0.00,0.00
1335,11.71756,2.96947,-0.93893,0.08423,-0.12793,0.97534,0.00,0.00,0.00
1336,13.80153,2.29771,-0.60305,0.08228,-0.11426,0.99487,0.00,0.00,0.00
1337,13.78626,1.30534,-0.74046,0.09131,-0.09326,0.99438,0.00,0.00,0.00
1338,12.08397,1.10687,-0.58015,0.07813,-0.07959,1.01367,0.00,0.00,0.00
1339,10.74809,-0.09924,-0.53435,0.08350,-0.08203,1.01099,0.00,0.00,0.00
1340,9.49618,0.61069,-0.35878,0.09155,-0.08057,1.00732,0.00,0.00,0.00
1341,7.61832,-0.05344,-0.50382,0.08203,-0.08423,1.01807,0.00,0.00,0.00
1342,6.96947,-0.51908,-0.79389,0.08521,-0.09131,1.00146,0.00,0.00,0.00
1343,6.27481,-0.72519,-0.62595,0.08936,-0.07568,1.00586,0.00,0.00,0.00
1344,5.54962,-0.45038,-0.58779,0.09277,-0.08643,0.97949,0.00,0.00,0.00
1345,5.18321,-0.35878,-0.32061,0.08545,-0.08765,0.99634,0.00,0.00,0.00
1346,5.06107,-0.38168,-0.04580,0.09155,-0.08740,0.99756,0.00,0.00,0.00
1347,4.66412,-0.67176,-0.01527,0.09375,-0.08472,0.99683,0.00,0.00,0.00
1348,4.12977,-0.47328,0.16031,0.09448,-0.08228,0.98022,0.00,0.00,0.00
1349,4.01527,0.41985,0.21374,0.10156,-0.08276,0.98242,0.00,0.00,0.00
1350,3.54198,0.97710,-0.13740,0.08887,-0.07837,0.99365,0.00,0.00,0.00
1351,2.95420,1.20611,0.00000,0.08887,-0.07227,0.98804,0.00,0.00,0.00
1352,2.61069,1.46565,0.06107,0.09033,-0.08057,0.98975,0.00,0.00,0.00
1353,2.38931,1.49618,-0.03053,0.09741,-0.07642,0.97559,0.00,0.00,0.00
1354,2.59542,2.14504,-0.03817,0.09326,-0.08960,0.98730,0.00,0.00,0.00
1355,2.36641,2.93130,-0.08397,0.09033,-0.08325,1.00073,0.00,0.00,0.00
1356,2.45802,2.74046,0.01527,0.09204,-0.08740,0.98511,0.00,0.00,0.00
1357,2.45038,2.59542,-0.35115,0.09619,-0.07861,0.98218,0.00,0.00,0.00
1358,2.36641,3.21374,-0.03817,0.10034,-0.07983,0.99194,0.00,0.00,0.00
1359,2.43511,4.16794,-0.19084,0.14160,-0.08398,1.01245,0.00,0.00,0.00
1360,3.64122,3.22901,-0.04580,0.10400,-0.06958,0.97998,0.00,0.00,0.00
1361,2.29771,2.54962,0.05344,0.07861,-0.08301,1.01685,0.00,0.00,0.00
1362,3.05344,3.40458,-0.32824,0.09082,-0.09009,0.99072,0.00,0.00,0.00
1363,2.93893,2.25191,0.41221,0.08130,-0.07080,1.01172,0.00,0.00,0.00
1364,2.04580,1.16794,-0.52672,0.08960,-0.06982,0.95386,0.00,0.00,0.00
1365,2.93130,1.15267,-0.73282,0.07349,-0.06738,0.99438,0.00,0.00,0.00
1366,2.59542,-0.57252,-1.45802,0.08276,-0.08911,0.99927,0.00,0.00,0.00
1367,3.94656,1.46565,-0.22137,0.11499,-0.08276,0.94458,0.00,0.00,0.00
1368,3.62595,3.39695,-0.61832,0.10522,-0.07349,0.95703,0.00,0.00,0.00
1369,2.87023,6.22137,-1.83969,0.12329,-0.07886,0.94531,0.00,0.00,0.00
1370,4.15267,8.07634,-1.05344,0.07886,-0.06763,1.00488,0.00,0.00,0.00
1371,4.38168,9.13740,0.17557,0.09497,-0.07666,0.98315,0.00,0.00,0.00
1372,5.34351,12.36641,1.38931,0.11646,-0.05615,0.94897,0.00,0.00,0.00
1373,6.08397,15.70229,1.90076,0.11499,-0.07715,0.96362,0.00,0.00,0.00
1374,6.79389,19.50382,3.46565,0.11719,-0.05249,0.95947,0.00,0.00,0.00
1375,7.98473,24.85496,1.39695,0.11304,-0.09399,0.96362,0.00,0.00,0.00
1376,8.58779,29.35115,2.79389,0.12158,-0.07788,0.95801,0.00,0.00,0.00
1377,9.32061,33.95420,3.38931,0.09473,-0.06226,0.98389,0.00,0.00,0.00
1378,9.67176,37.43511,4.32061,0.10547,-0.04248,0.95093,0.00,0.00,0.00
1379,11.20611,41.89313,5.21374,0.05811,-0.07178,0.96851,0.00,0.00,0.00
1380,12.63359,45.58779,6.56489,0.03247,-0.05908,0.94751,0.00,0.00,0.00
1381,15.26718,50.40458,7.05344,0.08594,-0.08105,0.93652,0.00,0.00,0.00
1382,16.49618,55.68702,9.37405,0.10181,-0.09106,0.95630,0.00,0.00,0.00
1383,19.25954,62.62595,10.09160,0.03906,-0.02930,0.93042,0.00,0.00,0.00
1384,21.88550,71.16794,8.43511,0.14331,-0.10547,0.87134,0.00,0.00,0.00
1385,26.20611,85.86260,9.86260,0.07813,-0.11279,0.94409,0.00,0.00,0.00
1386,29.32061,90.99237,7.25954,0.11011,-0.09766,0.95728,0.00,0.00,0.00
1387,35.96947,109.36641,7.10687,0.11206,-0.10181,0.86938,0.00,0.00,0.00
1388,42.07633,125.58779,1.89313,0.09595,-0.11206,0.83594,0.00,0.00,0.00
1389,48.83969,147.45800,-4.57252,0.13306,-0.13867,0.81128,0.00,0.00,0.00
1390,57.27481,169.94656,-14.68702,0.10791,-0.15186,0.86182,0.00,0.00,0.00
1391,69.35115,208.00000,-32.32824,0.16211,-0.10327,0.78613,0.00,0.00,0.00
1392,68.90077,221.39694,-43.32824,-0.10596,-0.00928,0.99170,0.00,0.00,0.00
1393,68.71756,248.21374,-43.96183,0.09644,-0.16602,1.11475,0.00,0.00,0.00
1394,83.15267,250.12977,-60.41221,-0.02368,-0.04858,0.94922,0.00,0.00,0.00
1395,86.26718,250.12977,-65.92367,-0.04907,0.04858,0.89551,0.00,0.00,0.00
1396,90.67176,250.12977,-72.21374,-0.05151,-0.06079,0.83081,0.00,0.00,0.00
1397,102.03817,250.12977,-79.50382,-0.13306,-0.06079,0.77783,0.00,0.00,0.00
1398,112.83969,250.12977,-85.93894,-0.23047,-0.03809,0.72705,0.00,0.00,0.00
1399,129.65649,250.12977,-97.49619,-0.17163,-0.30859,0.71021,0.00,0.00,0.00
1400,149.94656,250.12977,-107.18321,-0.51563,-0.24951,0.73584,0.00,0.00,0.00
1401,157.35115,250.12977,-120.80916,-0.63306,-0.24683,1.21509,0.00,0.00,0.00
1402,140.92366,250.12977,-137.09159,-0.89502,-0.02783,1.94629,0.00,0.00,0.00
1403,96.86260,250.12977,-144.24427,-0.88965,0.24731,1.99994,0.00,0.00,0.00
1404,26.91603,221.95419,-140.12977,-1.15479,0.61523,1.99994,0.00,0.00,0.00
1405,-33.35115,65.00764,-119.54962,-1.31714,0.90918,1.99994,0.00,0.00,0.00
1406,-82.59542,-94.20611,-98.83206,-0.70679,0.87427,1.99994,0.00,0.00,0.00
1407,-103.81680,-162.85496,-81.29008,-0.23364,0.66748,1.99994,0.00,0.00,0.00
1408,-109.79389,-204.48855,-61.77099,-0.06592,0.57739,1.56152,0.00,0.00,0.00
1409,-117.58779,-220.81678,-48.30534,0.00391,0.48779,0.93066,0.00,0.00,0.00
1410,-122.54199,-217.80152,-38.51145,0.11255,0.36890,0.40015,0.00,0.00,0.00
1411,-117.17558,-201.16793,-30.61069,0.15137,0.25806,0.20020,0.00,0.00,0.00
1412,-101.63359,-186.74046,-24.40458,0.06958,0.11548,0.18530,0.00,0.00,0.00
1413,-79.16031,-178.88549,-23.12977,0.02075,-0.01807,0.29004,0.00,0.00,0.00
1414,-50.16794,-175.68702,-23.58015,-0.00171,-0.07397,0.54883,0.00,0.00,0.00
1415,-23.63359,-182.49618,-22.82443,-0.10620,-0.03418,0.85547,0.00,0.00,0.00
1416,-9.81679,-197.77099,-20.37405,-0.17480,0.05469,1.05176,0.00,0.00,0.00
1417,-6.77099,-218.33587,-15.77099,-0.21875,0.12134,1.15991,0.00,0.00,0.00
1418,-10.99237,-236.82443,-9.61832,-0.26050,0.15527,1.16333,0.00,0.00,0.00
1419,-15.96947,-250.13740,-4.00000,-0.27148,0.10815,1.10596,0.00,0.00,0.00
1420,-14.12214,-250.13740,-0.22901,-0.27905,0.02710,1.08765,0.00,0.00,0.00
1421,-8.06870,-250.13740,1.55725,-0.34473,-0.07788,1.13354,0.00,0.00,0.00
1422,-1.09160,-250.13740,-0.29008,-0.42163,-0.18530,1.13818,0.00,0.00,0.00
1423,5.80916,-250.13740,-6.03817,-0.43359,-0.29126,1.06055,0.00,0.00,0.00
1424,11.21374,-250.13740,-12.90840,-0.43408,-0.32446,1.03467,0.00,0.00,0.00
1425,12.76336,-250.13740,-19.58779,-0.47095,-0.23608,1.07446,0.00,0.00,0.00
1426,9.70992,-250.13740,-22.91603,-0.52808,-0.10962,1.15283,0.00,0.00,0.00
1427,4.32824,-250.13740,-21.15267,-0.58960,0.07715,1.13794,0.00,0.00,0.00
1428,0.61069,-241.51908,-15.44275,-0.54395,0.19165,1.01563,0.00,0.00,0.00
1429,5.38931,-219.48855,-5.29008,-0.48267,0.28516,0.98193,0.00,0.00,0.00
1430,17.58779,-194.77862,8.61832,-0.49023,0.35962,1.14087,0.00,0.00,0.00
1431,31.87786,-186.21374,24.80153,-0.66992,0.46729,1.42896,0.00,0.00,0.00
1432,38.49618,-188.53434,43.04580,-0.75928,0.51270,1.49414,0.00,0.00,0.00
1433,39.35115,-188.95419,57.92366,-0.73267,0.43848,1.39648,0.00,0.00,0.00
1434,40.88550,-174.67175,70.73283,-0.59229,0.23877,1.20068,0.00,0.00,0.00
1435,46.53435,-154.99237,78.16031,-0.64502,0.00317,1.23828,0.00,0.00,0.00
1436,55.86259,-144.68702,80.77100,-0.73584,-0.22266,1.34937,0.00,0.00,0.00
1437,60.83206,-140.86259,79.50382,-0.80469,-0.33081,1.44336,0.00,0.00,0.00
1438,51.51908,-140.34350,73.62596,-0.81396,-0.37866,1.35889,0.00,0.00,0.00
1439,36.09923,-130.69465,65.91603,-0.73730,-0.42969,1.24390,0.00,0.00,0.00
1440,20.78626,-120.00764,56.67176,-0.70483,-0.41602,1.20801,0.00,0.00,0.00
1441,8.97710,-115.38168,48.47328,-0.75317,-0.36255,1.28516,0.00,0.00,0.00
1442,-0.84733,-115.80153,40.91603,-0.72070,-0.29077,1.20972,0.00,0.00,0.00
1443,-2.61069,-111.07633,36.39694,-0.65576,-0.23096,1.09741,0.00,0.00,0.00
1444,-3.09160,-106.36641,34.06870,-0.61035,-0.13867,1.00415,0.00,0.00,0.00
1445,-5.59542,-101.46566,32.29771,-0.53369,-0.10352,0.88892,0.00,0.00,0.00
1446,-7.81679,-93.32061,28.00000,-0.52856,-0.15527,0.82617,0.00,0.00,0.00
1447,-2.86260,-87.84733,21.73283,-0.57300,-0.22607,0.79248,0.00,0.00,0.00
1448,4.74046,-81.05344,14.41985,-0.52856,-0.25317,0.63745,0.00,0.00,0.00
1449,12.26718,-65.92367,7.85496,-0.43872,-0.25073,0.49805,0.00,0.00,0.00
1450,17.87023,-50.00000,3.50382,-0.39917,-0.21533,0.47681,0.00,0.00,0.00
1451,20.65649,-34.37405,0.94656,-0.34351,-0.15942,0.55029,0.00,0.00,0.00
1452,18.45038,-24.74046,1.02290,-0.36743,-0.09937,0.72119,0.00,0.00,0.00
1453,11.64122,-21.91603,3.03817,-0.34521,-0.03833,0.77881,0.00,0.00,0.00
1454,6.55725,-16.60305,5.77099,-0.26099,-0.03052,0.71680,0.00,0.00,0.00
1455,2.36641,-8.04580,9.37405,-0.21362,-0.03589,0.75366,0.00,0.00,0.00
1456,-0.24427,-4.65649,11.46565,-0.22681,-0.05005,0.83350,0.00,0.00,0.00
1457,-0.12977,-2.74046,13.84733,-0.20972,-0.03931,0.79858,0.00,0.00,0.00
1458,-0.54198,1.74046,16.75573,-0.14746,-0.02490,0.70142,0.00,0.00,0.00
1459,-0.57252,12.08397,19.16031,-0.10278,-0.03394,0.63208,0.00,0.00,0.00
1460,1.64122,24.43511,20.95420,-0.08325,-0.06763,0.68945,0.00,0.00,0.00
1461,5.98473,29.98473,21.99237,-0.11548,-0.07837,0.86694,0.00,0.00,0.00
1462,8.51908,29.72519,21.52672,-0.10645,-0.08008,0.97021,0.00,0.00,0.00
1463,15.33588,-17.16031,35.48091,0.33838,0.57617,1.11597,0.00,0.00,0.00
1464,-5.65649,79.19847,37.71755,1.68726,-0.12866,0.89062,0.00,0.00,0.00
1465,3.51145,84.50382,24.29771,1.26196,-0.26611,0.17725,0.00,0.00,0.00
1466,11.32824,142.66412,28.12214,0.14160,-0.03833,-0.14331,0.00,0.00,0.00
1467,4.37405,139.87786,29.56489,-0.01709,-0.22144,0.43555,0.00,0.00,0.00
1468,11.75572,156.22900,20.11450,0.64038,-0.55322,0.55688,0.00,0.00,0.00
1469,15.27481,194.82443,7.41985,0.14575,-0.56177,1.30469,0.00,0.00,0.00
1470,6.38931,141.82443,-2.19847,-0.48877,-0.39746,1.97192,0.00,0.00,0.00
1471,7.74809,97.12977,-10.02290,-0.07861,-0.30396,1.66357,0.00,0.00,0.00
1472,22.74809,93.89313,-6.96947,0.17188,0.00293,1.25464,0.00,0.00,0.00
1473,12.18321,89.12214,-4.15267,0.01978,0.21313,1.23804,0.00,0.00,0.00
1474,11.11450,78.67176,3.32061,0.04834,0.12280,1.20972,0.00,0.00,0.00
1475,14.74809,75.08397,6.93893,0.04028,-0.05518,1.25806,0.00,0.00,0.00
1476,11.22137,63.16794,4.12214,-0.03906,-0.20972,1.31909,0.00,0.00,0.00
1477,10.46565,48.71755,0.01527,-0.01440,-0.21484,1.30493,0.00,0.00,0.00
1478,-0.95420,36.91603,-1.07634,-0.01465,0.03027,1.45874,0.00,0.00,0.00
1479,-14.21374,15.21374,2.93130,-0.03491,0.23975,1.53662,0.00,0.00,0.00
1480,-34.13740,-1.87023,6.28244,-0.04443,0.26514,1.25195,0.00,0.00,0.00
1481,-46.00000,1.52672,9.50382,0.21362,0.04297,0.77368,0.00,0.00,0.00
1482,-44.06870,18.70229,9.64885,0.19873,-0.16064,0.85156,0.00,0.00,0.00
1483,-28.70992,19.12977,5.10687,0.00610,-0.35327,1.26929,0.00,0.00,0.00
1484,-17.38168,6.70229,1.97710,-0.02271,-0.22534,1.20239,0.00,0.00,0.00
1485,-14.26718,7.54962,2.56489,0.16748,-0.04639,0.90576,0.00,0.00,0.00
1486,-13.02290,18.15267,2.45802,0.15869,-0.15112,0.98706,0.00,0.00,0.00
1487,-5.87786,14.86260,1.17557,-0.01025,-0.19189,1.10815,0.00,0.00,0.00
1488,-0.75573,9.59542,1.27481,0.06519,-0.13916,1.04565,0.00,0.00,0.00
1489,0.83969,11.91603,1.58015,0.09668,-0.09033,0.99561,0.00,0.00,0.00
1490,1.74046,11.61069,1.26718,0.05078,-0.09985,1.03345,0.00,0.00,0.00
1491,2.10687,8.89313,1.79389,0.05591,-0.07324,1.03223,0.00,0.00,0.00
1492,-0.32824,10.12977,2.48092,0.08862,-0.06250,0.97900,0.00,0.00,0.00
1493,-1.14504,10.91603,2.00000,0.07471,-0.10327,0.97900,0.00,0.00,0.00
1494,0.22901,10.96183,1.41985,0.05664,-0.10718,1.00342,0.00,0.00,0.00
1495,0.10687,10.32061,1.06107,0.05396,-0.08252,1.01611,0.00,0.00,0.00
1496,-1.03817,9.48855,0.94656,0.05811,-0.08179,1.01831,0.00,0.00,0.00
1497,-1.94656,8.16030,0.13740,0.03979,-0.07788,1.02100,0.00,0.00,0.00
1498,-2.75573,7.63359,-0.09160,0.05981,-0.09741,1.01318,0.00,0.00,0.00
1499,-1.57252,6.42748,0.05344,0.03955,-0.10522,1.02832,0.00,0.00,0.00
1500,-1.35878,5.18321,0.14504,0.05640,-0.10034,1.01489,0.00,0.00,0.00
1501,-1.42748,5.00000,0.02290,0.06665,-0.09473,0.99243,0.00,0.00,0.00
1502,-1.29008,4.52672,-0.02290,0.04590,-0.09888,1.00684,0.00,0.00,0.00
1503,-1.28244,3.65649,-0.41985,0.05005,-0.09741,1.01123,0.00,0.00,0.00
1504,-1.23664,2.90840,-0.35115,0.03394,-0.08765,1.01880,0.00,0.00,0.00
1505,-0.93893,2.11450,-0.36641,0.05225,-0.08960,1.00342,0.00,0.00,0.00
1506,-1.19847,1.77863,-0.54962,0.04883,-0.10400,0.99854,0.00,0.00,0.00
1507,-0.32061,0.77099,-0.46565,0.04102,-0.10449,1.00610,0.00,0.00,0.00
1508,1.07634,-0.12214,-0.10687,0.04565,-0.12427,0.98730,0.00,0.00,0.00
1509,2.54962,-0.58015,0.06107,0.04590,-0.11035,0.99072,0.00,0.00,0.00
1510,4.54962,-0.78626,-0.25954,0.05566,-0.10913,0.98145,0.00,0.00,0.00
1511,5.87023,-1.00763,0.09924,0.05029,-0.12915,0.99170,0.00,0.00,0.00
1512,7.67176,-1.65649,-0.09924,0.04932,-0.09351,0.99414,0.00,0.00,0.00
1513,8.36641,-2.02290,0.03053,0.06323,-0.11035,0.98511,0.00,0.00,0.00
1514,9.04580,-1.56489,-0.06107,0.05151,-0.08813,0.99219,0.00,0.00,0.00
1515,8.48855,-2.17557,-0.22901,0.05713,-0.07666,0.99976,0.00,0.00,0.00
1516,7.65649,-1.90076,-0.19084,0.05713,-0.06909,1.00049,0.00,0.00,0.00
1517,6.31298,-1.99237,-0.44275,0.05762,-0.08008,1.00244,0.00,0.00,0.00
1518,5.03053,-2.02290,-0.48092,0.05469,-0.07227,1.00586,0.00,0.00,0.00
1519,4.38931,-2.36641,-0.58015,0.06055,-0.06885,0.98486,0.00,0.00,0.00
1520,4.12214,-1.90840,-0.71756,0.05542,-0.08667,0.99414,0.00,0.00,0.00
1521,3.21374,-1.55725,-0.67939,0.06030,-0.08301,0.99414,0.00,0.00,0.00
1522,3.10687,-0.96947,-0.57252,0.06323,-0.07642,0.98926,0.00,0.00,0.00
1523,2.77099,-0.66412,-0.47328,0.06323,-0.08105,1.00195,0.00,0.00,0.00
1524,2.36641,-0.35878,-0.58015,0.05908,-0.07300,0.99731,0.00,0.00,0.00
1525,1.83969,-0.68702,-0.51145,0.05103,-0.07690,1.00244,0.00,0.00,0.00
1526,1.63359,-0.96183,-0.41985,0.06323,-0.07910,0.99048,0.00,0.00,0.00
1527,1.69466,-1.33588,-0.46565,0.05322,-0.07886,0.99927,0.00,0.00,0.00
1528,1.72519,-1.49618,-0.40458,0.05908,-0.07788,0.99780,0.00,0.00,0.00
1529,1.74809,-1.44275,-0.20611,0.06079,-0.07642,0.99683,0.00,0.00,0.00
1530,1.28244,-1.58015,-0.36641,0.05347,-0.07617,1.00146,0.00,0.00,0.00
1531,1.11450,-2.06107,-0.19084,0.05469,-0.07324,1.00049,0.00,0.00,0.00
1532,1.30534,-2.29771,-0.03817,0.05420,-0.08228,1.00684,0.00,0.00,0.00
1533,1.09160,-3.00000,-0.12214,0.05273,-0.07446,1.00781,0.00,0.00,0.00
1534,0.90840,-3.05344,-0.20611,0.06250,-0.07739,1.00171,0.00,0.00,0.00
1535,0.81679,-3.63359,-0.22901,0.05640,-0.07690,1.00757,0.00,0.00,0.00
1536,0.58779,-3.62595,-0.34351,0.05884,-0.08081,1.00928,0.00,0.00,0.00
1537,0.74809,-4.31298,-0.32061,0.05322,-0.08350,0.99414,0.00,0.00,0.00
1538,1.01527,-4.85496,-0.12214,0.06396,-0.08154,0.98804,0.00,0.00,0.00
1539,1.00000,-4.11450,-0.12977,0.07324,-0.06909,0.97534,0.00,0.00,0.00
1540,0.85496,-4.14504,-0.18321,0.06079,-0.07544,1.00391,0.00,0.00,0.00
1541,0.79389,-4.17557,-0.22137,0.05908,-0.07520,0.99365,0.00,0.00,0.00
1542,0.81679,-4.61069,-0.12977,0.07104,-0.06982,0.98730,0.00,0.00,0.00
1543,0.74046,-3.77099,-0.32824,0.07617,-0.07642,0.98120,0.00,0.00,0.00
1544,0.63359,-3.03817,-0.20611,0.07690,-0.07983,0.98389,0.00,0.00,0.00
1545,0.58779,-2.92366,-0.32824,0.06738,-0.08374,0.99219,0.00,0.00,0.00
1546,0.23664,-2.76336,-0.20611,0.06787,-0.07544,0.98779,0.00,0.00,0.00
1547,0.50382,-2.45802,-0.05344,0.07227,-0.07813,0.99902,0.00,0.00,0.00
1548,0.31298,-1.74809,-0.03817,0.07861,-0.07837,0.97681,0.00,0.00,0.00
1549,-0.02290,-0.93130,-0.25191,0.07422,-0.07275,0.98291,0.00,0.00,0.00
1550,0.05344,-0.89313,-0.05344,0.07593,-0.07617,0.97729,0.00,0.00,0.00
1551,-0.31298,-0.47328,-0.19084,0.07324,-0.07764,0.98755,0.00,0.00,0.00
1552,-0.09160,-0.19847,-0.15267,0.07300,-0.08472,0.98877,0.00,0.00,0.00
1553,0.09924,0.25954,-0.12214,0.07910,-0.07666,0.97632,0.00,0.00,0.00
1554,0.07634,1.20611,-0.25191,0.06982,-0.06494,0.97876,0.00,0.00,0.00
1555,-0.00763,1.56489,-0.16031,0.07593,-0.07983,0.99048,0.00,0.00,0.00
1556,-0.39695,1.88550,-0.19847,0.06616,-0.06885,0.98291,0.00,0.00,0.00
1557,-0.43511,2.48855,-0.41221,0.08008,-0.07373,0.98584,0.00,0.00,0.00
1558,-0.39695,2.73282,-0.58015,0.07642,-0.07031,0.98706,0.00,0.00,0.00
1559,-0.78626,3.45038,-0.47328,0.07568,-0.09277,0.98901,0.00,0.00,0.00
1560,-0.71756,3.88550,-0.80153,0.07813,-0.07251,0.97778,0.00,0.00,0.00
1561,-0.67176,4.97710,-0.80153,0.07324,-0.07715,0.96729,0.00,0.00,0.00
1562,-0.48092,5.07634,-0.85496,0.07349,-0.07813,0.99365,0.00,0.00,0.00
1563,-0.18321,6.75573,-0.71756,0.07007,-0.09619,0.96899,0.00,0.00,0.00
1564,0.07634,6.93893,-1.02290,0.07373,-0.07007,0.97852,0.00,0.00,0.00
1565,1.09160,9.64122,-0.52672,0.10693,-0.08618,1.01318,0.00,0.00,0.00
1566,0.77099,9.48855,-0.33588,0.10693,-0.03320,0.96655,0.00,0.00,0.00
1567,1.41221,9.74809,-1.15267,0.07080,-0.07080,0.97876,0.00,0.00,0.00
1568,2.04580,11.15267,-1.16794,0.06152,-0.07959,0.99829,0.00,0.00,0.00
1569,2.10687,10.73282,-0.95420,0.04663,-0.07202,1.00879,0.00,0.00,0.00
1570,1.63359,10.79389,-0.84733,0.04663,-0.08130,1.00146,0.00,0.00,0.00
1571,1.26718,9.77863,-1.00763,0.04980,-0.05713,0.99487,0.00,0.00,0.00
1572,1.69466,11.16030,-1.27481,0.07520,-0.07007,0.95239,0.00,0.00,0.00
1573,2.46565,11.66412,-1.09160,0.06274,-0.08887,0.98193,0.00,0.00,0.00
1574,2.12214,10.22137,-1.36641,0.03687,-0.08496,1.00024,0.00,0.00,0.00
1575,0.93130,7.19084,-1.90076,0.03174,-0.07227,1.01099,0.00,0.00,0.00
1576,1.33588,6.41221,-1.77099,0.04761,-0.07349,1.01270,0.00,0.00,0.00
1577,1.63359,7.07634,0.12214,0.07886,-0.04370,0.95264,0.00,0.00,0.00
1578,1.87023,11.53435,-0.80153,0.05615,-0.10547,1.01978,0.00,0.00,0.00
1579,1.16031,10.00000,-2.04580,0.04077,-0.06689,1.02197,0.00,0.00,0.00
1580,3.26718,11.47328,0.40458,0.07983,-0.06519,0.98389,0.00,0.00,0.00
1581,4.10687,15.65649,2.19084,0.04980,-0.05420,0.97754,0.00,0.00,0.00
1582,4.70229,18.45038,2.41985,0.06567,-0.07251,0.94922,0.00,0.00,0.00
1583,6.23664,21.01527,4.12977,0.03296,-0.05737,0.98413,0.00,0.00,0.00
1584,7.37405,22.22138,5.92366,0.03320,-0.07251,1.00171,0.00,0.00,0.00
1585,8.07634,23.14504,5.98473,0.04004,-0.05444,0.94922,0.00,0.00,0.00
1586,10.00000,24.85496,6.75573,0.02930,-0.06860,1.01904,0.00,0.00,0.00
1587,10.29008,27.38931,7.39695,0.01001,-0.09277,0.94116,0.00,0.00,0.00
1588,11.45802,31.29008,8.16030,0.04395,-0.06958,0.91382,0.00,0.00,0.00
1589,13.41221,35.94656,8.95420,0.04102,-0.10791,0.99341,0.00,0.00,0.00
1590,15.45802,37.86259,8.54962,0.00708,-0.04224,0.99927,0.00,0.00,0.00
1591,17.03817,41.34351,8.54962,0.04492,-0.05371,0.89355,0.00,0.00,0.00
1592,18.79389,46.40458,8.38168,0.02905,-0.06006,0.97168,0.00,0.00,0.00
1593,20.93130,50.80916,7.77863,0.02612,-0.08350,0.94019,0.00,0.00,0.00
1594,23.38168,57.60305,8.13740,0.03223,-0.06738,0.90576,0.00,0.00,0.00
1595,26.90840,69.61069,4.19084,0.14722,-0.14722,0.82373,0.00,0.00,0.00
1596,32.93130,82.96947,4.15267,-0.01099,-0.06592,0.97827,0.00,0.00,0.00
1597,36.19847,90.16794,0.25954,0.06494,-0.10767,0.79614,0.00,0.00,0.00
1598,41.75572,105.52672,-0.44275,0.03638,-0.08716,0.91309,0.00,0.00,0.00
1599,45.89313,120.14504,-4.41221,0.02856,-0.10840,0.92285,0.00,0.00,0.00
1600,53.26717,137.50381,-12.38931,0.06030,-0.17310,0.81665,0.00,0.00,0.00
1601,67.66413,164.37403,-22.95420,0.10010,-0.22412,0.87769,0.00,0.00,0.00
1602,79.76336,191.63359,-37.78626,0.03760,-0.11646,0.94482,0.00,0.00,0.00
1603,86.28244,219.00762,-46.50382,0.06445,0.01880,0.94556,0.00,0.00,0.00
1604,89.74810,250.12977,-49.74809,0.01978,0.01807,0.89966,0.00,0.00,0.00
1605,95.54962,250.12977,-55.35115,-0.02441,-0.01855,0.91626,0.00,0.00,0.00
1606,104.34352,250.12977,-59.83206,0.01147,-0.00488,0.85913,0.00,0.00,0.00
1607,112.77863,250.12977,-64.94657,-0.07886,-0.02197,0.80371,0.00,0.00,0.00
1608,127.44275,250.12977,-70.24428,-0.24561,-0.07104,0.77002,0.00,0.00,0.00
1609,142.36640,250.12977,-74.17558,-0.25781,-0.06201,0.72485,0.00,0.00,0.00
1610,162.74809,250.12977,-85.09924,-0.40894,-0.10937,0.73291,0.00,0.00,0.00
1611,166.29006,250.12977,-95.11450,-0.46777,-0.15918,1.03882,0.00,0.00,0.00
1612,141.90075,250.12977,-106.76336,-0.75757,-0.06494,1.64575,0.00,0.00,0.00
1613,82.59542,250.12977,-116.49619,-0.88184,0.20020,1.99994,0.00,0.00,0.00
1614,-2.19847,246.82443,-123.25955,-1.04907,0.37354,1.99994,0.00,0.00,0.00
1615,-61.81679,116.57252,-117.51145,-1.46924,0.49780,1.99994,0.00,0.00,0.00
1616,-108.79389,-66.10688,-106.34352,-1.14307,0.57666,1.99994,0.00,0.00,0.00
1617,-127.32061,-157.25190,-98.70993,-0.38940,0.32886,1.99994,0.00,0.00,0.00
1618,-127.45038,-200.91603,-91.08397,-0.20898,0.29541,1.55029,0.00,0.00,0.00
1619,-128.94656,-218.74046,-84.88550,-0.13501,0.29565,0.83398,0.00,0.00,0.00
1620,-130.84733,-208.14503,-79.80153,0.05762,0.33521,0.15869,0.00,0.00,0.00
1621,-125.74810,-168.09159,-70.38932,0.24585,0.27759,-0.17578,0.00,0.00,0.00
1622,-107.10688,-137.38168,-60.40458,0.00659,0.22192,0.10254,0.00,0.00,0.00
1623,-87.40458,-137.72518,-53.70992,-0.13501,0.17065,0.41064,0.00,0.00,0.00
1624,-61.17557,-141.32824,-48.47328,-0.07373,0.10986,0.55151,0.00,0.00,0.00
1625,-31.28244,-144.90075,-40.78626,-0.08423,0.13867,0.77002,0.00,0.00,0.00
1626,-9.19847,-159.98472,-31.40458,-0.19434,0.23462,1.01294,0.00,0.00,0.00
1627,0.96947,-179.92366,-19.57252,-0.23193,0.27979,1.10840,0.00,0.00,0.00
1628,4.56489,-196.41984,-8.70229,-0.25488,0.27051,1.10352,0.00,0.00,0.00
1629,4.69466,-209.46565,2.80153,-0.26123,0.20605,1.08960,0.00,0.00,0.00
1630,3.82443,-221.57252,12.14504,-0.32666,0.11011,1.08057,0.00,0.00,0.00
1631,1.25191,-231.45037,17.06107,-0.34448,-0.02124,0.99561,0.00,0.00,0.00
1632,1.52672,-233.05343,17.23664,-0.34521,-0.20166,0.91333,0.00,0.00,0.00
1633,4.46565,-231.49618,11.64122,-0.38647,-0.34888,0.90747,0.00,0.00,0.00
1634,6.87786,-229.32824,2.69466,-0.45679,-0.40283,0.92065,0.00,0.00,0.00
1635,5.62595,-226.66412,-6.72519,-0.44556,-0.33911,0.90576,0.00,0.00,0.00
1636,1.79389,-219.18321,-13.03817,-0.42407,-0.22290,0.85596,0.00,0.00,0.00
1637,-2.01527,-208.06106,-15.64122,-0.37256,-0.11768,0.85083,0.00,0.00,0.00
1638,-3.40458,-191.67175,-14.95420,-0.33301,0.01514,0.97217,0.00,0.00,0.00
1639,0.94656,-179.91603,-9.65649,-0.37061,0.17676,1.30469,0.00,0.00,0.00
1640,6.77863,-183.63359,0.94656,-0.53760,0.33130,1.70166,0.00,0.00,0.00
1641,9.37405,-204.57252,12.55725,-0.67017,0.43262,1.85986,0.00,0.00,0.00
1642,8.74809,-226.96946,26.74046,-0.68457,0.47681,1.75391,0.00,0.00,0.00
1643,11.78626,-235.79389,41.19084,-0.63403,0.39185,1.38525,0.00,0.00,0.00
1644,20.02290,-223.44274,54.03053,-0.55884,0.28979,1.12183,0.00,0.00,0.00
1645,27.80916,-208.80915,62.64885,-0.59937,0.15356,1.08691,0.00,0.00,0.00
1646,31.37405,-195.37403,66.51908,-0.65430,0.01050,1.10815,0.00,0.00,0.00
1647,30.93893,-182.40458,66.00000,-0.65552,-0.14844,1.03418,0.00,0.00,0.00
1648,30.06870,-164.27481,60.72519,-0.59619,-0.26392,0.91577,0.00,0.00,0.00
1649,30.91603,-136.70993,51.97710,-0.53369,-0.38574,1.01489,0.00,0.00,0.00
1650,35.55725,-125.08397,42.06107,-0.71069,-0.43481,1.43018,0.00,0.00,0.00
1651,34.65649,-131.80915,30.52672,-0.83838,-0.38843,1.69238,0.00,0.00,0.00
1652,26.81679,-145.28244,21.01527,-0.86646,-0.32275,1.61743,0.00,0.00,0.00
1653,12.82443,-149.03816,13.87786,-0.78516,-0.23950,1.25562,0.00,0.00,0.00
1654,0.25954,-142.99237,8.97710,-0.70239,-0.20142,0.96387,0.00,0.00,0.00
1655,-6.50382,-126.12214,5.16031,-0.62036,-0.18896,0.70313,0.00,0.00,0.00
1656,-5.22137,-105.15267,2.72519,-0.54565,-0.16235,0.56812,0.00,0.00,0.00
1657,0.36641,-86.12977,3.04580,-0.46387,-0.11279,0.53955,0.00,0.00,0.00
1658,2.29771,-70.45802,5.12977,-0.43091,-0.02686,0.61133,0.00,0.00,0.00
1659,-0.87023,-56.91603,9.87786,-0.38647,0.04419,0.66650,0.00,0.00,0.00
1660,-5.96947,-46.61832,15.85496,-0.34155,0.09375,0.75659,0.00,0.00,0.00
1661,-9.80916,-39.98473,23.97710,-0.28296,0.13281,0.80371,0.00,0.00,0.00
1662,-12.35878,-35.33588,31.87786,-0.17993,0.13574,0.79248,0.00,0.00,0.00
1663,-11.38168,-28.74809,39.54962,-0.10986,0.09497,0.85571,0.00,0.00,0.00
1664,-7.36641,-30.24427,45.83206,-0.08521,0.05249,0.93335,0.00,0.00,0.00
1665,-1.86260,-32.45801,51.39694,0.01147,0.00464,0.87061,0.00,0.00,0.00
1666,1.13740,-31.35115,54.83969,0.08447,-0.01465,0.81885,0.00,0.00,0.00
1667,1.01527,-28.82443,56.44275,0.07593,-0.08911,0.82471,0.00,0.00,0.00
1668,2.35115,-27.48855,54.76336,0.06470,-0.17822,0.81055,0.00,0.00,0.00
1669,5.67176,-24.19084,50.61832,0.07153,-0.25049,0.84106,0.00,0.00,0.00
1670,6.77863,-23.58015,44.14504,0.05005,-0.26001,0.85986,0.00,0.00,0.00
1671,5.85496,-23.00763,37.46565,0.05176,-0.26685,0.82788,0.00,0.00,0.00
1672,5.31298,-20.09160,29.89313,0.08936,-0.26978,0.77490,0.00,0.00,0.00
1673,5.88550,-13.52672,21.95420,0.11987,-0.30664,0.75488,0.00,0.00,0.00
1674,9.39695,-9.80153,12.95420,0.09302,-0.31812,0.82837,0.00,0.00,0.00
1675,11.98473,-7.58015,5.03053,0.09131,-0.29248,0.88696,0.00,0.00,0.00
1676,10.38931,-9.30534,-2.61832,0.05933,-0.23389,0.93921,0.00,0.00,0.00
1677,6.15267,-10.47328,-9.07634,0.10718,-0.19312,0.84448,0.00,0.00,0.00
1678,4.03053,-4.16794,-14.36641,0.15210,-0.18481,0.71216,0.00,0.00,0.00
1679,4.73282,3.75573,-18.00000,0.15356,-0.16553,0.67236,0.00,0.00,0.00
1680,6.09160,11.76336,-20.93893,0.17090,-0.12842,0.63428,0.00,0.00,0.00
1681,10.27481,21.70229,-21.30534,0.21289,-0.05835,0.61768,0.00,0.00,0.00
1682,-22.28244,70.54962,17.46565,1.74023,0.04419,-0.12305,0.00,0.00,0.00
1683,-11.41985,102.20611,12.24427,0.50952,-0.29224,0.26416,0.00,0.00,0.00
1684,37.41984,122.92367,18.57252,0.40845,-0.12085,0.27856,0.00,0.00,0.00
1685,56.16794,145.23664,23.00763,0.34497,-0.03296,0.39990,0.00,0.00,0.00
1686,46.64122,168.80152,20.32061,0.30103,-0.19604,0.73560,0.00,0.00,0.00
1687,20.19084,164.96183,8.94656,-0.00195,-0.46338,1.03613,0.00,0.00,0.00
1688,11.08397,142.90075,-1.61069,-0.11572,-0.47412,1.13110,0.00,0.00,0.00
1689,20.74809,132.46565,-8.56488,0.04126,-0.33472,1.02319,0.00,0.00,0.00
1690,30.99237,132.51144,-8.45038,0.17163,0.06372,0.91772,0.00,0.00,0.00
1691,19.22901,147.94656,-7.51145,0.19849,0.22900,1.00317,0.00,0.00,0.00
1692,21.55725,153.07633,3.09160,-0.02661,0.33472,1.34302,0.00,0.00,0.00
1693,-14.70992,119.50382,12.75572,0.17603,0.31836,1.99994,0.00,0.00,0.00
1694,-33.28244,79.86260,3.64122,-1.45239,-0.14648,1.99994,0.00,0.00,0.00
