Packet number,Gyroscope X (deg/s),Gyroscope Y (deg/s),Gyroscope Z (deg/s),Accelerometer X (g),Accelerometer Y (g),Accelerometer Z (g),Magnetometer X (G),Magnetometer Y (G),Magnetometer Z (G)
1,-0.11450,-0.14504,0.18321,0.01807,-0.16162,0.98877,0.00,0.00,0.00
2,-0.04580,-0.22137,-0.19084,0.01440,-0.15381,0.98682,0.00,0.00,0.00
3,-0.01527,-0.16031,-0.09924,0.01489,-0.16162,0.98218,0.00,0.00,0.00
4,-0.02290,-0.09924,-0.18321,0.02271,-0.15845,0.98682,0.00,0.00,0.00
5,0.05344,0.05344,-0.20611,0.01392,-0.15918,0.98584,0.00,0.00,0.00
6,0.16794,-0.11450,-0.06107,0.01953,-0.15991,0.98804,0.00,0.00,0.00
7,0.08397,0.02290,-0.10687,0.01343,-0.15845,0.98950,0.00,0.00,0.00
8,0.11450,-0.14504,-0.24427,0.01270,-0.16089,0.98779,0.00,0.00,0.00
9,0.21374,-0.25954,0.06107,0.01904,-0.15430,0.98730,0.00,0.00,0.00
10,0.46565,-0.18321,0.10687,0.01489,-0.15747,0.99243,0.00,0.00,0.00
11,0.25191,-0.25191,0.16794,0.01611,-0.15479,0.98340,0.00,0.00,0.00
12,0.20611,-0.37405,-0.06870,0.01416,-0.15771,0.98193,0.00,0.00,0.00
13,0.48092,-0.78626,0.01527,0.01245,-0.15723,0.98950,0.00,0.00,0.00
14,0.58015,-0.29771,0.05344,0.01514,-0.15698,0.97681,0.00,0.00,0.00
15,0.12214,-0.30534,0.23664,0.01685,-0.15942,0.98242,0.00,0.00,0.00
16,0.50382,-0.24427,0.05344,0.02026,-0.15405,0.97656,0.00,0.00,0.00
17,0.30534,-0.61069,0.06107,0.00928,-0.15845,0.98267,0.00,0.00,0.00
18,0.37405,-0.22137,-0.10687,0.01855,-0.15186,0.98242,0.00,0.00,0.00
19,0.20611,-0.29008,0.04580,0.01294,-0.15649,0.98389,0.00,0.00,0.00
20,0.23664,-0.49618,-0.11450,0.01343,-0.15552,0.98706,0.00,0.00,0.00
21,0.49618,-0.43511,-0.16794,0.01196,-0.15479,0.98462,0.00,0.00,0.00
22,0.29771,-0.46565,-0.09924,0.01978,-0.15625,0.98145,0.00,0.00,0.00
23,0.25191,-0.30534,0.03053,0.01929,-0.15869,0.98682,0.00,0.00,0.00
24,0.17557,-0.23664,-0.27481,0.01318,-0.14917,0.98828,0.00,0.00,0.00
25,0.05344,-0.20611,0.00000,0.01050,-0.15308,0.98096,0.00,0.00,0.00
26,0.12214,-0.29008,-0.17557,0.01343,-0.15308,0.98584,0.00,0.00,0.00
27,0.21374,-0.25954,-0.07634,0.01172,-0.15723,0.98047,0.00,0.00,0.00
28,0.06107,-0.30534,0.03817,0.01636,-0.15894,0.99194,0.00,0.00,0.00
29,0.10687,-0.03053,-0.19084,0.01562,-0.15210,0.98730,0.00,0.00,0.00
30,0.08397,-0.06870,-0.06107,0.01099,-0.15234,0.98950,0.00,0.00,0.00
31,0.22901,-0.13740,0.06870,0.01050,-0.15283,0.98193,0.00,0.00,0.00
32,0.33588,-0.35878,0.00763,0.01636,-0.16602,0.98389,0.00,0.00,0.00
33,0.05344,-0.19847,-0.06870,0.01685,-0.15527,0.98218,0.00,0.00,0.00
34,0.00000,0.06107,0.04580,0.01392,-0.15454,0.98340,0.00,0.00,0.00
35,-0.03817,0.03053,-0.07634,0.01685,-0.15625,0.98877,0.00,0.00,0.00
36,-0.01527,-0.13740,-0.17557,0.01709,-0.15454,0.98291,0.00,0.00,0.00
37,0.10687,-0.13740,-0.12214,0.01514,-0.15112,0.99243,0.00,0.00,0.00
38,0.22901,-0.06107,-0.03053,0.01001,-0.16260,0.98853,0.00,0.00,0.00
39,0.07634,-0.32824,0.07634,0.01562,-0.15503,0.98389,0.00,0.00,0.00
40,0.11450,-0.18321,0.00763,0.01880,-0.15308,0.98462,0.00,0.00,0.00
41,0.01527,-0.25954,-0.19084,0.01245,-0.15723,0.98413,0.00,0.00,0.00
42,-0.01527,-0.01527,0.03053,0.01929,-0.15283,0.98193,0.00,0.00,0.00
43,-0.08397,0.18321,-0.12214,0.01514,-0.15918,0.98437,0.00,0.00,0.00
44,0.03053,-0.16794,-0.10687,0.02100,-0.15771,0.99023,0.00,0.00,0.00
45,-0.10687,-0.16794,-0.04580,0.01001,-0.15527,0.99072,0.00,0.00,0.00
46,0.01527,0.10687,-0.00763,0.01343,-0.15503,0.97632,0.00,0.00,0.00
47,0.00763,0.03053,-0.13740,0.02002,-0.16064,0.98877,0.00,0.00,0.00
48,-0.05344,-0.00763,-0.18321,0.00757,-0.15259,0.98877,0.00,0.00,0.00
49,-0.19084,0.07634,0.00000,0.01904,-0.15625,0.98462,0.00,0.00,0.00
50,-0.22901,-0.03053,-0.13740,0.01953,-0.15454,0.98462,0.00,0.00,0.00
51,0.19847,-0.03053,-0.04580,0.00684,-0.15527,0.98633,0.00,0.00,0.00
52,-0.13740,-0.09160,-0.00763,0.01514,-0.15381,0.98950,0.00,0.00,0.00
53,-0.11450,0.14504,-0.05344,0.01807,-0.15015,0.98877,0.00,0.00,0.00
54,-0.03053,-0.09160,-0.04580,0.01270,-0.15259,0.98804,0.00,0.00,0.00
55,-0.22901,-0.03053,-0.03053,0.01099,-0.15698,0.97534,0.00,0.00,0.00
56,-0.19084,0.00000,-0.12214,0.01367,-0.15137,0.98901,0.00,0.00,0.00
57,-0.14504,0.22137,0.00000,0.02393,-0.16113,0.98682,0.00,0.00,0.00
58,0.07634,-0.01527,0.09924,0.01099,-0.15649,0.98608,0.00,0.00,0.00
59,0.03053,-0.06107,0.11450,0.01318,-0.15576,0.98071,0.00,0.00,0.00
60,0.19084,-0.16031,-0.02290,0.01489,-0.15674,0.98706,0.00,0.00,0.00
61,0.10687,-0.34351,0.04580,0.01733,-0.15430,0.98340,0.00,0.00,0.00
62,-0.22137,0.00000,-0.05344,0.01929,-0.15894,0.98901,0.00,0.00,0.00
63,-0.04580,-0.09160,-0.08397,0.01489,-0.15796,0.98462,0.00,0.00,0.00
64,0.03053,0.08397,-0.16031,0.01831,-0.14795,0.97974,0.00,0.00,0.00
65,-0.09160,-0.01527,-0.06107,0.01147,-0.16357,0.99268,0.00,0.00,0.00
66,0.02290,-0.27481,0.06107,0.01733,-0.15845,0.97754,0.00,0.00,0.00
67,0.05344,0.09160,0.06870,0.01807,-0.16040,0.97632,0.00,0.00,0.00
68,0.09160,0.16794,0.03053,0.01221,-0.15454,0.98657,0.00,0.00,0.00
69,-0.08397,-0.19084,0.09924,0.02148,-0.15869,0.98486,0.00,0.00,0.00
70,-0.12977,0.36641,-0.01527,0.01343,-0.15405,0.98462,0.00,0.00,0.00
71,-0.02290,0.06870,-0.06870,0.01685,-0.15283,0.99365,0.00,0.00,0.00
72,0.19084,-0.13740,-0.00763,0.01782,-0.16016,0.98706,0.00,0.00,0.00
73,0.09160,0.12977,-0.00763,0.01831,-0.15527,0.98120,0.00,0.00,0.00
74,0.01527,-0.02290,0.00763,0.01611,-0.15991,0.98242,0.00,0.00,0.00
75,0.00763,-0.03053,-0.12977,0.01733,-0.15405,0.98340,0.00,0.00,0.00
76,-0.08397,0.21374,0.01527,0.01147,-0.15356,0.97705,0.00,0.00,0.00
77,0.02290,-0.05344,-0.07634,0.01392,-0.15674,0.99487,0.00,0.00,0.00
78,-0.03817,0.04580,-0.12977,0.01001,-0.15625,0.98340,0.00,0.00,0.00
79,-0.14504,0.16794,-0.18321,0.01538,-0.15771,0.98169,0.00,0.00,0.00
80,0.06107,-0.02290,-0.00763,0.01172,-0.15796,0.98511,0.00,0.00,0.00
81,-0.14504,-0.05344,0.07634,0.02051,-0.15649,0.98169,0.00,0.00,0.00
82,-0.09924,0.03817,-0.06107,0.00928,-0.15259,0.98560,0.00,0.00,0.00
83,-0.09160,0.10687,-0.09160,0.01758,-0.14917,0.98877,0.00,0.00,0.00
84,0.03817,-0.13740,-0.02290,0.01465,-0.16504,0.98584,0.00,0.00,0.00
85,-0.08397,-0.28244,0.12977,0.01587,-0.15894,0.98486,0.00,0.00,0.00
86,0.24427,0.00000,0.03817,0.01489,-0.15845,0.98584,0.00,0.00,0.00
87,0.06107,-0.10687,-0.03053,0.02026,-0.15527,0.99707,0.00,0.00,0.00
88,0.09924,-0.03817,0.04580,0.01416,-0.15234,0.98560,0.00,0.00,0.00
89,0.19847,-0.08397,-0.02290,0.00708,-0.15527,0.98096,0.00,0.00,0.00
90,-0.03053,0.00763,-0.10687,0.01294,-0.15601,0.98145,0.00,0.00,0.00
91,-0.15267,0.17557,-0.13740,0.01636,-0.16260,0.98218,0.00,0.00,0.00
92,0.39695,0.03053,0.09924,0.00977,-0.15894,0.97388,0.00,0.00,0.00
93,-0.12214,0.19084,0.00000,0.02002,-0.15527,0.98584,0.00,0.00,0.00
94,0.09160,-0.04580,-0.11450,0.01611,-0.15723,0.99097,0.00,0.00,0.00
95,0.10687,0.02290,-0.12977,0.01147,-0.15430,0.98145,0.00,0.00,0.00
96,0.01527,-0.00763,-0.13740,0.01050,-0.15845,0.98682,0.00,0.00,0.00
97,-0.06107,-0.01527,-0.10687,0.01001,-0.15356,0.98999,0.00,0.00,0.00
98,0.09160,-0.00763,0.02290,0.01538,-0.15332,0.98657,0.00,0.00,0.00
99,0.03053,0.04580,-0.07634,0.01587,-0.15991,0.98145,0.00,0.00,0.00
100,0.16031,0.09924,-0.16031,0.01196,-0.15356,0.98853,0.00,0.00,0.00
101,0.12977,-0.03817,0.04580,0.00977,-0.15210,0.98657,0.00,0.00,0.00
102,0.15267,-0.10687,-0.07634,0.01538,-0.15332,0.97827,0.00,0.00,0.00
103,0.03053,0.07634,0.02290,0.01587,-0.15063,0.98950,0.00,0.00,0.00
104,0.12977,-0.21374,-0.01527,0.01123,-0.15649,0.98584,0.00,0.00,0.00
105,0.12977,-0.12214,-0.09924,0.01611,-0.15234,0.98511,0.00,0.00,0.00
106,-0.03053,-0.00763,-0.00763,0.01465,-0.15796,0.98169,0.00,0.00,0.00
107,0.02290,0.10687,0.00763,0.01562,-0.16016,0.98437,0.00,0.00,0.00
108,0.17557,0.06870,-0.22137,0.01392,-0.15430,0.97925,0.00,0.00,0.00
109,0.04580,-0.11450,0.07634,0.01099,-0.15845,0.98364,0.00,0.00,0.00
110,-0.03817,-0.24427,0.03053,0.01782,-0.15332,0.98853,0.00,0.00,0.00
111,-0.08397,0.11450,0.02290,0.01270,-0.15332,0.98315,0.00,0.00,0.00
112,-0.00763,-0.11450,0.03053,0.01758,-0.16040,0.97827,0.00,0.00,0.00
113,-0.09160,0.04580,-0.07634,0.02026,-0.15503,0.98535,0.00,0.00,0.00
114,-0.15267,-0.01527,-0.17557,0.01929,-0.16064,0.99268,0.00,0.00,0.00
115,-0.18321,0.22137,-0.12977,0.02124,-0.15454,0.98804,0.00,0.00,0.00
116,-0.20611,-0.19847,-0.06107,0.01294,-0.15503,0.98608,0.00,0.00,0.00
117,-0.07634,-0.21374,-0.05344,0.01758,-0.15430,0.98022,0.00,0.00,0.00
118,0.00763,0.10687,-0.11450,0.01953,-0.15552,0.98315,0.00,0.00,0.00
119,-0.15267,0.03817,-0.11450,0.01367,-0.15845,0.99097,0.00,0.00,0.00
120,0.03817,-0.10687,-0.01527,0.01587,-0.15161,0.98315,0.00,0.00,0.00
121,-0.12977,0.07634,-0.12977,0.01416,-0.15649,0.98071,0.00,0.00,0.00
122,0.30534,-0.16794,-0.19847,0.01465,-0.15674,0.98608,0.00,0.00,0.00
123,0.03817,-0.10687,-0.13740,0.01538,-0.15405,0.98267,0.00,0.00,0.00
124,0.07634,-0.14504,0.04580,0.01709,-0.15894,0.98389,0.00,0.00,0.00
125,0.20611,-0.07634,0.03817,0.01660,-0.15918,0.98584,0.00,0.00,0.00
126,-0.05344,-0.01527,-0.03817,0.02295,-0.15332,0.98779,0.00,0.00,0.00
127,0.06107,-0.09160,-0.10687,0.01587,-0.15308,0.98315,0.00,0.00,0.00
128,0.09924,0.14504,-0.11450,0.01294,-0.15186,0.98682,0.00,0.00,0.00
129,0.18321,0.03053,-0.14504,0.00757,-0.15576,0.99121,0.00,0.00,0.00
130,0.12214,-0.15267,0.05344,0.01147,-0.15161,0.98853,0.00,0.00,0.00
131,-0.05344,-0.24427,-0.10687,0.01855,-0.15527,0.99414,0.00,0.00,0.00
132,-0.13740,-0.03053,0.03817,0.01196,-0.15283,0.98926,0.00,0.00,0.00
133,-0.08397,-0.09924,-0.13740,0.02393,-0.15527,0.98535,0.00,0.00,0.00
134,0.09160,0.06107,-0.05344,0.01245,-0.15308,0.99878,0.00,0.00,0.00
135,-0.12977,0.09160,-0.06870,0.01392,-0.15649,0.97876,0.00,0.00,0.00
136,0.21374,0.19847,0.05344,0.01953,-0.15845,0.99414,0.00,0.00,0.00
137,-0.07634,0.03053,-0.22901,0.01807,-0.15723,0.98145,0.00,0.00,0.00
138,0.09160,-0.29771,0.04580,0.00562,-0.15576,0.98975,0.00,0.00,0.00
139,0.03053,-0.17557,-0.12977,0.01196,-0.14990,0.98096,0.00,0.00,0.00
140,0.09160,-0.05344,-0.06107,0.01685,-0.15649,0.97998,0.00,0.00,0.00
141,-0.03053,-0.02290,0.00763,0.01074,-0.15332,0.99536,0.00,0.00,0.00
142,0.06870,0.10687,-0.12214,0.01416,-0.15259,0.98779,0.00,0.00,0.00
143,-0.00763,-0.11450,-0.25191,0.01245,-0.15723,0.99194,0.00,0.00,0.00
144,0.02290,-0.15267,-0.17557,0.01733,-0.15894,0.98584,0.00,0.00,0.00
145,0.03053,-0.06107,-0.03053,0.01807,-0.15649,0.98926,0.00,0.00,0.00
146,0.16794,0.07634,-0.09160,0.01123,-0.15649,0.98437,0.00,0.00,0.00
147,0.17557,0.09924,-0.09924,0.01880,-0.14868,0.99048,0.00,0.00,0.00
148,-0.00763,0.19084,-0.03053,0.01758,-0.15527,0.98267,0.00,0.00,0.00
149,-0.04580,0.16794,-0.14504,0.01099,-0.15625,0.98755,0.00,0.00,0.00
150,0.10687,-0.11450,-0.14504,0.01050,-0.15381,0.98340,0.00,0.00,0.00
151,0.32061,0.00000,-0.03053,0.00928,-0.15723,0.99854,0.00,0.00,0.00
152,0.18321,0.02290,-0.00763,0.01978,-0.15356,0.98486,0.00,0.00,0.00
153,0.29008,-0.26718,-0.01527,0.01562,-0.15308,0.99365,0.00,0.00,0.00
154,0.17557,-0.05344,-0.01527,0.01733,-0.15796,0.97998,0.00,0.00,0.00
155,0.26718,-0.03817,-0.03817,0.01929,-0.15991,0.97144,0.00,0.00,0.00
156,0.25954,-0.14504,-0.12214,0.01416,-0.15356,0.98633,0.00,0.00,0.00
157,0.01527,-0.13740,-0.03817,0.01953,-0.15137,0.98145,0.00,0.00,0.00
158,0.40458,-0.09924,-0.01527,0.01953,-0.15845,0.99072,0.00,0.00,0.00
159,0.25954,-0.07634,-0.17557,0.01465,-0.15186,0.98486,0.00,0.00,0.00
160,0.10687,-0.07634,-0.08397,0.01709,-0.15356,0.99023,0.00,0.00,0.00
161,-0.18321,0.12214,0.04580,0.01733,-0.16211,0.98926,0.00,0.00,0.00
162,0.06870,-0.06107,-0.12214,0.01416,-0.15356,0.98633,0.00,0.00,0.00
163,-0.01527,0.23664,-0.07634,0.01440,-0.14990,0.98804,0.00,0.00,0.00
164,-0.05344,-0.06870,-0.06107,0.01099,-0.15210,0.98975,0.00,0.00,0.00
165,0.11450,-0.16031,0.15267,0.01318,-0.15698,0.98389,0.00,0.00,0.00
166,0.05344,0.06107,-0.06107,0.02466,-0.15967,0.97607,0.00,0.00,0.00
167,-0.20611,0.11450,0.08397,0.01855,-0.15918,0.99243,0.00,0.00,0.00
168,0.04580,-0.00763,-0.18321,0.01245,-0.15405,0.98145,0.00,0.00,0.00
169,-0.06107,-0.12214,-0.03817,0.01465,-0.16138,0.98682,0.00,0.00,0.00
170,-0.07634,-0.00763,0.06870,0.01343,-0.15527,0.98413,0.00,0.00,0.00
171,-0.04580,0.09924,-0.14504,0.01392,-0.15210,0.98657,0.00,0.00,0.00
172,-0.15267,-0.05344,-0.21374,0.01685,-0.15186,0.98560,0.00,0.00,0.00
173,0.01527,-0.23664,-0.21374,0.01562,-0.15869,0.98560,0.00,0.00,0.00
174,-0.00763,0.06107,-0.14504,0.01465,-0.15747,0.98877,0.00,0.00,0.00
175,0.12977,0.11450,-0.16794,0.01099,-0.15845,0.98901,0.00,0.00,0.00
176,0.12977,0.12977,-0.09924,0.01050,-0.15796,0.98437,0.00,0.00,0.00
177,-0.19847,0.04580,0.08397,0.01587,-0.15137,0.98755,0.00,0.00,0.00
178,0.18321,0.03053,-0.03817,0.01465,-0.15698,0.97876,0.00,0.00,0.00
179,0.16031,-0.18321,-0.01527,0.01831,-0.15430,0.98022,0.00,0.00,0.00
180,-0.06870,-0.28244,-0.19084,0.00952,-0.15405,0.98730,0.00,0.00,0.00
181,0.03817,-0.32824,-0.16031,0.01880,-0.15503,0.98633,0.00,0.00,0.00
182,-0.35878,-0.21374,-0.12977,0.01343,-0.15967,0.98169,0.00,0.00,0.00
183,-0.10687,-0.09924,0.01527,0.01953,-0.15454,0.97900,0.00,0.00,0.00
184,0.00000,0.09924,-0.07634,0.01465,-0.15112,0.98389,0.00,0.00,0.00
185,0.18321,0.03053,-0.08397,0.01611,-0.15747,0.98364,0.00,0.00,0.00
186,-0.12214,-0.10687,-0.07634,0.01416,-0.15601,0.99023,0.00,0.00,0.00
187,-0.11450,-0.05344,-0.00763,0.01562,-0.15503,0.98120,0.00,0.00,0.00
188,-0.16794,0.09924,-0.26718,0.01514,-0.15283,0.98193,0.00,0.00,0.00
189,-0.34351,-0.39695,-0.05344,0.01758,-0.14868,0.98071,0.00,0.00,0.00
190,-0.25954,-0.19847,0.01527,0.01782,-0.15454,0.98706,0.00,0.00,0.00
191,-0.34351,-0.16031,-0.27481,0.01465,-0.14819,0.99487,0.00,0.00,0.00
192,-0.31298,0.07634,0.01527,0.01270,-0.16040,0.98022,0.00,0.00,0.00
193,-0.22137,-0.04580,-0.22137,0.01660,-0.15381,0.98413,0.00,0.00,0.00
194,-0.10687,-0.12977,-0.08397,0.01294,-0.15308,0.98486,0.00,0.00,0.00
195,-0.16794,0.07634,-0.04580,0.01392,-0.15088,0.99023,0.00,0.00,0.00
196,-0.12214,0.08397,-0.21374,0.01343,-0.15723,0.98486,0.00,0.00,0.00
197,-0.12977,0.01527,-0.20611,0.01245,-0.15015,0.98120,0.00,0.00,0.00
198,-0.20611,0.05344,-0.08397,0.01929,-0.15649,0.99194,0.00,0.00,0.00
199,-0.31298,-0.06870,-0.06870,0.01099,-0.15039,0.98706,0.00,0.00,0.00
200,-0.49618,0.03817,0.08397,0.01416,-0.15527,0.99268,0.00,0.00,0.00
201,-0.32824,0.12977,-0.21374,0.01245,-0.15576,0.99292,0.00,0.00,0.00
202,-0.12977,-0.13740,-0.16031,0.01807,-0.15088,0.98999,0.00,0.00,0.00
203,-0.10687,-0.12214,-0.18321,0.01221,-0.15308,0.98950,0.00,0.00,0.00
204,-0.27481,0.16031,-0.01527,0.02051,-0.15723,0.98022,0.00,0.00,0.00
205,-0.18321,0.16794,-0.09160,0.01440,-0.15820,0.98560,0.00,0.00,0.00
206,-0.33588,0.00763,-0.16031,0.01196,-0.15210,0.98901,0.00,0.00,0.00
207,-0.03053,0.13740,0.06870,0.01514,-0.15869,0.98511,0.00,0.00,0.00
208,-0.19084,0.16031,-0.06107,0.00586,-0.15381,0.98584,0.00,0.00,0.00
209,-0.33588,0.09160,-0.09924,0.01392,-0.15869,0.98608,0.00,0.00,0.00
210,-0.29008,0.14504,-0.18321,0.00903,-0.15381,0.98315,0.00,0.00,0.00
211,0.00000,0.12977,-0.03053,0.01880,-0.15918,0.98804,0.00,0.00,0.00
212,-0.14504,0.03053,-0.19847,0.01465,-0.15698,0.98535,0.00,0.00,0.00
213,-0.27481,0.18321,0.09924,0.01831,-0.14941,0.98071,0.00,0.00,0.00
214,-0.08397,0.20611,-0.04580,0.01562,-0.15381,0.98462,0.00,0.00,0.00
215,-0.06107,-0.03053,-0.01527,0.01465,-0.15308,0.98975,0.00,0.00,0.00
216,-0.11450,-0.01527,-0.32061,0.01318,-0.15649,0.98535,0.00,0.00,0.00
217,-0.11450,0.15267,-0.08397,0.00928,-0.15454,0.98267,0.00,0.00,0.00
218,-0.21374,0.18321,0.08397,0.01538,-0.15674,0.98657,0.00,0.00,0.00
219,-0.06107,0.15267,-0.12214,0.01318,-0.15503,0.97778,0.00,0.00,0.00
220,-0.25954,-0.06870,-0.11450,0.01831,-0.16138,0.98486,0.00,0.00,0.00
221,0.12977,0.16794,-0.12214,0.01685,-0.15869,0.98901,0.00,0.00,0.00
222,-0.05344,0.09160,-0.03053,0.00854,-0.15454,0.98340,0.00,0.00,0.00
223,-0.05344,0.21374,-0.16794,0.01904,-0.15576,0.99316,0.00,0.00,0.00
224,-0.12977,0.03817,-0.13740,0.01489,-0.15576,0.98999,0.00,0.00,0.00
225,-0.00763,0.35878,-0.00763,0.01562,-0.15308,0.98145,0.00,0.00,0.00
226,-0.25191,-0.03053,-0.03817,0.01514,-0.15503,0.98853,0.00,0.00,0.00
227,0.04580,0.09924,-0.17557,0.01709,-0.15161,0.98437,0.00,0.00,0.00
228,-0.02290,0.05344,-0.18321,0.01562,-0.15625,0.98804,0.00,0.00,0.00
229,-0.13740,0.32061,0.00000,0.01514,-0.15698,0.98608,0.00,0.00,0.00
230,-0.18321,0.40458,-0.09924,0.01123,-0.15747,0.98193,0.00,0.00,0.00
231,0.00000,0.06107,-0.10687,0.01904,-0.15625,0.98242,0.00,0.00,0.00
232,0.13740,0.09160,-0.22137,0.01123,-0.15576,0.97583,0.00,0.00,0.00
233,-0.05344,0.04580,-0.00763,0.01514,-0.15259,0.98389,0.00,0.00,0.00
234,-0.11450,0.09160,-0.14504,0.01099,-0.15356,0.98462,0.00,0.00,0.00
235,-0.15267,-0.00763,0.02290,0.01074,-0.15356,0.98145,0.00,0.00,0.00
236,-0.06870,0.08397,-0.08397,0.01636,-0.15674,0.98560,0.00,0.00,0.00
237,0.03817,0.19847,-0.03817,0.01099,-0.15991,0.98755,0.00,0.00,0.00
238,-0.09924,-0.10687,0.05344,0.01709,-0.15259,0.98218,0.00,0.00,0.00
239,0.00000,0.17557,0.06107,0.00806,-0.15942,0.98291,0.00,0.00,0.00
240,0.09924,-0.10687,-0.16031,0.01294,-0.15576,0.97778,0.00,0.00,0.00
241,0.00000,-0.05344,-0.12214,0.01367,-0.15991,0.98584,0.00,0.00,0.00
242,-0.06870,0.10687,-0.06870,0.01538,-0.15479,0.99390,0.00,0.00,0.00
243,-0.12214,-0.06107,0.01527,0.01172,-0.15503,0.98535,0.00,0.00,0.00
244,-0.07634,-0.04580,-0.09160,0.00854,-0.15869,0.98657,0.00,0.00,0.00
245,0.11450,0.22137,-0.06107,0.01709,-0.15698,0.97827,0.00,0.00,0.00
246,0.18321,0.19847,-0.23664,0.02197,-0.15771,0.99072,0.00,0.00,0.00
247,-0.15267,0.21374,-0.18321,0.01392,-0.15894,0.98071,0.00,0.00,0.00
248,0.04580,0.05344,0.02290,0.01221,-0.15381,0.98462,0.00,0.00,0.00
249,0.09924,0.22901,-0.04580,0.01367,-0.15674,0.98682,0.00,0.00,0.00
250,-0.19084,0.16031,-0.00763,0.01147,-0.15503,0.97461,0.00,0.00,0.00
251,0.34351,-0.00763,-0.08397,0.01367,-0.15698,0.98633,0.00,0.00,0.00
252,0.21374,-0.09924,-0.01527,0.01270,-0.15332,0.99292,0.00,0.00,0.00
253,0.22137,-0.16031,-0.03053,0.02100,-0.15332,0.97900,0.00,0.00,0.00
254,0.12214,-0.12977,0.03817,0.01636,-0.16260,0.98291,0.00,0.00,0.00
255,0.16794,-0.12214,-0.15267,0.01196,-0.15332,0.98560,0.00,0.00,0.00
256,-0.03053,0.09924,0.07634,0.00977,-0.15112,0.97852,0.00,0.00,0.00
257,-0.10687,0.24427,0.01527,0.01367,-0.15356,0.98218,0.00,0.00,0.00
258,0.28244,-0.19084,-0.07634,0.01343,-0.15601,0.98706,0.00,0.00,0.00
259,-0.14504,-0.03817,0.22901,0.01489,-0.15869,0.98340,0.00,0.00,0.00
260,-0.03053,-0.13740,0.03053,0.01636,-0.15503,0.98950,0.00,0.00,0.00
261,-0.02290,-0.00763,-0.32824,0.01367,-0.15259,0.97900,0.00,0.00,0.00
262,0.00000,-0.12977,-0.01527,0.01465,-0.15088,0.98901,0.00,0.00,0.00
263,-0.02290,-0.06870,-0.09160,0.01685,-0.15649,0.98096,0.00,0.00,0.00
264,-0.17557,-0.18321,-0.14504,0.00903,-0.15161,0.99536,0.00,0.00,0.00
265,0.08397,-0.07634,-0.12214,0.01270,-0.15308,0.99097,0.00,0.00,0.00
266,0.02290,-0.09160,-0.03817,0.01294,-0.15332,0.98901,0.00,0.00,0.00
267,-0.23664,-0.11450,-0.22137,0.01685,-0.15869,0.98242,0.00,0.00,0.00
268,-0.13740,0.16794,0.03817,0.01001,-0.15454,0.98169,0.00,0.00,0.00
269,-0.11450,0.09160,-0.11450,0.01343,-0.15552,0.97095,0.00,0.00,0.00
270,-0.21374,0.06107,-0.22137,0.01294,-0.15283,0.98022,0.00,0.00,0.00
271,-0.24427,-0.01527,-0.10687,0.01245,-0.15918,0.98267,0.00,0.00,0.00
272,-0.07634,-0.03817,-0.00763,0.01367,-0.15576,0.98877,0.00,0.00,0.00
273,-0.20611,0.03053,-0.22901,0.01294,-0.15576,0.98999,0.00,0.00,0.00
274,-0.32824,0.16794,-0.04580,0.01587,-0.15576,0.98584,0.00,0.00,0.00
275,-0.19084,0.14504,0.00763,0.01489,-0.15625,0.98804,0.00,0.00,0.00
276,-0.27481,-0.13740,-0.03817,0.01147,-0.16162,0.98267,0.00,0.00,0.00
277,-0.11450,0.22901,-0.03817,0.01221,-0.15479,0.98389,0.00,0.00,0.00
278,-0.09160,0.20611,-0.36641,0.01636,-0.15381,0.98657,0.00,0.00,0.00
279,-0.13740,0.00763,-0.21374,0.00879,-0.15112,0.97778,0.00,0.00,0.00
280,-0.29008,-0.05344,-0.19847,0.01074,-0.15942,0.98608,0.00,0.00,0.00
281,-0.21374,0.03053,-0.01527,0.01636,-0.15967,0.97705,0.00,0.00,0.00
282,0.05344,-0.09160,-0.00763,0.01245,-0.15698,0.98462,0.00,0.00,0.00
283,-0.09160,0.22901,-0.06107,0.01562,-0.15601,0.99243,0.00,0.00,0.00
284,-0.14504,0.13740,-0.28244,0.01123,-0.15991,0.98437,0.00,0.00,0.00
285,-0.07634,-0.09924,-0.06107,0.01587,-0.16064,0.98706,0.00,0.00,0.00
286,0.03053,-0.05344,0.06107,0.01294,-0.15649,0.98389,0.00,0.00,0.00
287,0.05344,-0.06107,0.00763,0.00708,-0.15381,0.98926,0.00,0.00,0.00
288,0.22137,-0.13740,0.00000,0.01294,-0.16089,0.98584,0.00,0.00,0.00
289,0.06107,-0.02290,-0.04580,0.01782,-0.15283,0.98950,0.00,0.00,0.00
290,0.04580,-0.06870,0.06107,0.01147,-0.14990,0.98437,0.00,0.00,0.00
291,0.01527,-0.14504,-0.01527,0.01514,-0.15942,0.98437,0.00,0.00,0.00
292,-0.12214,-0.02290,-0.05344,0.01831,-0.15674,0.98486,0.00,0.00,0.00
293,-0.01527,-0.01527,-0.15267,0.01367,-0.15552,0.98437,0.00,0.00,0.00
294,0.03053,-0.15267,-0.04580,0.01001,-0.15601,0.98413,0.00,0.00,0.00
295,0.08397,-0.12214,-0.10687,0.01611,-0.15869,0.98511,0.00,0.00,0.00
296,0.17557,-0.18321,-0.09160,0.01392,-0.16699,0.98340,0.00,0.00,0.00
297,0.13740,-0.07634,0.02290,0.01880,-0.15503,0.98047,0.00,0.00,0.00
298,0.10687,-0.07634,-0.05344,0.01367,-0.15698,0.98389,0.00,0.00,0.00
299,0.19084,-0.12214,-0.03053,0.00562,-0.15796,0.99146,0.00,0.00,0.00
300,0.21374,-0.06870,-0.11450,0.01172,-0.15771,0.98364,0.00,0.00,0.00
301,0.16794,-0.29771,0.09924,0.01025,-0.15869,0.98389,0.00,0.00,0.00
302,0.33588,-0.35115,0.04580,0.01416,-0.15405,0.99023,0.00,0.00,0.00
303,0.06107,-0.30534,-0.03053,0.00977,-0.15503,0.98999,0.00,0.00,0.00
304,0.38931,-0.15267,-0.21374,0.01221,-0.15405,0.98560,0.00,0.00,0.00
305,0.34351,-0.27481,-0.09924,0.01489,-0.15576,0.98511,0.00,0.00,0.00
306,0.05344,-0.09924,-0.17557,0.01270,-0.15137,0.97827,0.00,0.00,0.00
307,0.17557,-0.02290,-0.00763,0.01294,-0.15576,0.98877,0.00,0.00,0.00
308,0.33588,-0.39695,0.11450,0.01099,-0.15381,0.98682,0.00,0.00,0.00
309,0.35878,-0.16031,-0.13740,0.01294,-0.15576,0.98804,0.00,0.00,0.00
310,0.19084,-0.28244,-0.16794,0.01245,-0.15991,0.98682,0.00,0.00,0.00
311,0.40458,-0.06870,0.05344,0.01318,-0.15869,0.98242,0.00,0.00,0.00
312,0.32061,-0.18321,-0.09924,0.01538,-0.15454,0.98755,0.00,0.00,0.00
313,0.41221,-0.33588,0.12214,0.01123,-0.15723,0.98828,0.00,0.00,0.00
314,0.33588,-0.34351,0.05344,0.01245,-0.15015,0.98657,0.00,0.00,0.00
315,0.18321,-0.44275,0.09924,0.01440,-0.15479,0.98950,0.00,0.00,0.00
316,0.25954,-0.18321,0.09924,0.00562,-0.15137,0.99219,0.00,0.00,0.00
317,0.27481,-0.13740,-0.06870,0.01733,-0.15503,0.98047,0.00,0.00,0.00
318,0.22901,-0.33588,-0.07634,0.01025,-0.15332,0.97876,0.00,0.00,0.00
319,0.08397,-0.06107,-0.03817,0.01758,-0.14966,0.97339,0.00,0.00,0.00
320,-0.22901,0.07634,-0.00763,0.01367,-0.15723,0.98437,0.00,0.00,0.00
321,-0.04580,0.06107,-0.06870,0.01562,-0.14795,0.98218,0.00,0.00,0.00
322,-0.01527,0.06870,-0.03053,0.01880,-0.15527,0.98706,0.00,0.00,0.00
323,-0.10687,0.01527,-0.16031,0.01489,-0.16211,0.97607,0.00,0.00,0.00
324,-0.25954,0.13740,-0.01527,0.02173,-0.15576,0.98267,0.00,0.00,0.00
325,-0.24427,-0.00763,-0.46565,0.01392,-0.15796,0.97559,0.00,0.00,0.00
326,-0.25191,-0.19084,-0.22901,0.00854,-0.15649,0.98682,0.00,0.00,0.00
327,-0.49618,0.32061,-0.23664,0.01855,-0.15894,0.98315,0.00,0.00,0.00
328,-0.12214,0.12977,-0.15267,0.01099,-0.15210,0.97607,0.00,0.00,0.00
329,-0.25191,0.29008,-0.12977,0.01611,-0.15552,0.98999,0.00,0.00,0.00
330,-0.22137,0.06107,-0.08397,0.01172,-0.15967,0.99243,0.00,0.00,0.00
331,0.06870,0.01527,-0.11450,0.01001,-0.15747,0.98901,0.00,0.00,0.00
332,0.00763,-0.12977,-0.12977,0.01611,-0.16235,0.98560,0.00,0.00,0.00
333,0.12214,-0.06870,0.00000,0.01440,-0.15576,0.99194,0.00,0.00,0.00
334,-0.12977,0.17557,-0.01527,0.01636,-0.15796,0.98022,0.00,0.00,0.00
335,0.05344,-0.02290,-0.09160,0.01343,-0.15576,0.98877,0.00,0.00,0.00
336,-0.07634,0.09160,-0.14504,0.01440,-0.15576,0.98022,0.00,0.00,0.00
337,0.07634,0.10687,0.00000,0.01636,-0.15991,0.98633,0.00,0.00,0.00
338,-0.06870,-0.05344,-0.06107,0.01416,-0.15234,0.99536,0.00,0.00,0.00
339,0.06870,0.04580,-0.14504,0.01636,-0.15430,0.97705,0.00,0.00,0.00
340,0.03817,-0.16794,-0.02290,0.01636,-0.16016,0.99219,0.00,0.00,0.00
341,0.00763,-0.09924,0.06107,0.01587,-0.16211,0.98218,0.00,0.00,0.00
342,-0.07634,-0.03817,-0.09924,0.01245,-0.16162,0.98096,0.00,0.00,0.00
343,-0.06107,-0.16794,0.01527,0.01636,-0.16040,0.98315,0.00,0.00,0.00
344,-0.01527,0.05344,-0.17557,0.01147,-0.15942,0.98437,0.00,0.00,0.00
345,-0.17557,-0.03817,-0.06107,0.01440,-0.15552,0.99048,0.00,0.00,0.00
346,-0.09924,0.06107,0.01527,0.01733,-0.16040,0.98706,0.00,0.00,0.00
347,-0.17557,0.14504,-0.08397,0.01685,-0.15527,0.97803,0.00,0.00,0.00
348,-0.14504,0.10687,-0.13740,0.00830,-0.15601,0.98315,0.00,0.00,0.00
349,-0.06870,-0.00763,-0.14504,0.01929,-0.15552,0.98462,0.00,0.00,0.00
350,-0.07634,0.02290,0.03817,0.01709,-0.15601,0.98657,0.00,0.00,0.00
351,0.14504,-0.16031,-0.25191,0.02100,-0.16284,0.98853,0.00,0.00,0.00
352,-0.09924,-0.00763,0.03053,0.01465,-0.16040,0.99561,0.00,0.00,0.00
353,-0.14504,0.12977,-0.06107,0.01343,-0.16040,0.97974,0.00,0.00,0.00
354,0.01527,-0.12214,-0.03817,0.01172,-0.15454,0.98389,0.00,0.00,0.00
355,0.00000,0.07634,-0.12214,0.01807,-0.16260,0.97876,0.00,0.00,0.00
356,0.02290,0.01527,-0.06107,0.01880,-0.15625,0.99561,0.00,0.00,0.00
357,0.02290,0.05344,-0.20611,0.01538,-0.15674,0.98413,0.00,0.00,0.00
358,-0.06107,-0.00763,-0.11450,0.01123,-0.15601,0.98022,0.00,0.00,0.00
359,0.07634,0.03817,-0.03817,0.01392,-0.15820,0.98584,0.00,0.00,0.00
360,-0.11450,0.06870,-0.09160,0.01318,-0.15723,0.98877,0.00,0.00,0.00
361,-0.02290,-0.16031,-0.08397,0.01587,-0.15332,0.98389,0.00,0.00,0.00
362,-0.08397,-0.09160,-0.10687,0.01465,-0.16040,0.99121,0.00,0.00,0.00
363,-0.11450,-0.03817,-0.10687,0.00903,-0.15771,0.98877,0.00,0.00,0.00
364,-0.22901,0.03817,-0.02290,0.01929,-0.15796,0.98804,0.00,0.00,0.00
365,-0.06107,0.12977,-0.02290,0.01953,-0.15649,0.98608,0.00,0.00,0.00
366,-0.15267,-0.09160,-0.03053,0.01538,-0.15894,0.98242,0.00,0.00,0.00
367,0.06107,-0.04580,0.06107,0.01587,-0.14844,0.97852,0.00,0.00,0.00
368,0.03053,-0.01527,-0.03817,0.01562,-0.14893,0.98535,0.00,0.00,0.00
369,0.06870,-0.25954,-0.01527,0.01562,-0.15308,0.98877,0.00,0.00,0.00
370,-0.05344,0.04580,0.00000,0.01416,-0.15576,0.98535,0.00,0.00,0.00
371,-0.23664,0.11450,-0.02290,0.01221,-0.15649,0.98560,0.00,0.00,0.00
372,-0.06107,0.22901,-0.12977,0.01831,-0.15332,0.99194,0.00,0.00,0.00
373,-0.11450,-0.02290,-0.10687,0.01562,-0.15918,0.98682,0.00,0.00,0.00
374,-0.09160,0.00000,-0.09924,0.01562,-0.15991,0.98340,0.00,0.00,0.00
375,0.05344,0.01527,-0.00763,0.00879,-0.15674,0.99487,0.00,0.00,0.00
376,-0.02290,-0.19084,-0.09924,0.01221,-0.15381,0.98804,0.00,0.00,0.00
377,-0.12977,-0.01527,-0.13740,0.01416,-0.15771,0.98242,0.00,0.00,0.00
378,-0.06107,0.05344,-0.09160,0.01538,-0.16309,0.98315,0.00,0.00,0.00
379,-0.08397,0.02290,0.02290,0.01880,-0.15234,0.98779,0.00,0.00,0.00
380,-0.09160,-0.08397,-0.10687,0.01343,-0.15698,0.98608,0.00,0.00,0.00
381,-0.03817,0.00000,-0.07634,0.01270,-0.14990,0.98535,0.00,0.00,0.00
382,0.03817,-0.02290,-0.19847,0.01050,-0.15234,0.98291,0.00,0.00,0.00
383,0.14504,0.11450,-0.15267,0.00269,-0.15625,0.98877,0.00,0.00,0.00
384,-0.17557,0.26718,-0.19084,0.01440,-0.14502,0.98560,0.00,0.00,0.00
385,-0.19847,0.19847,-0.07634,0.01343,-0.15576,0.98364,0.00,0.00,0.00
386,0.02290,-0.04580,-0.18321,0.01636,-0.15308,0.98267,0.00,0.00,0.00
387,0.07634,0.20611,-0.11450,0.01147,-0.16479,0.99023,0.00,0.00,0.00
388,-0.09160,0.09924,-0.11450,0.01050,-0.15747,0.98853,0.00,0.00,0.00
389,-0.06107,0.00763,0.00000,0.01050,-0.16138,0.97974,0.00,0.00,0.00
390,-0.18321,-0.00763,0.03817,0.01562,-0.16113,0.98804,0.00,0.00,0.00
391,-0.01527,0.07634,-0.06870,0.01733,-0.15259,0.98682,0.00,0.00,0.00
392,-0.08397,0.09160,-0.07634,0.01465,-0.15747,0.98096,0.00,0.00,0.00
393,-0.29008,-0.04580,0.12214,0.01392,-0.15552,0.99097,0.00,0.00,0.00
394,-0.15267,-0.11450,-0.03817,0.01196,-0.15747,0.99097,0.00,0.00,0.00
395,-0.24427,-0.18321,-0.09924,0.01489,-0.15527,0.98022,0.00,0.00,0.00
396,-0.00763,0.28244,0.14504,0.01147,-0.15186,0.98315,0.00,0.00,0.00
397,0.13740,0.16794,0.04580,0.01587,-0.15747,0.98071,0.00,0.00,0.00
398,-0.16794,0.30534,-0.04580,0.01050,-0.15039,0.99170,0.00,0.00,0.00
399,-0.07634,0.16794,-0.16031,0.01172,-0.15601,0.98315,0.00,0.00,0.00
400,-0.18321,0.01527,-0.10687,0.02246,-0.15747,0.98267,0.00,0.00,0.00
401,-0.01527,0.19084,0.00000,0.01538,-0.14990,0.98193,0.00,0.00,0.00
402,-0.23664,0.05344,0.03817,0.01562,-0.16040,0.98877,0.00,0.00,0.00
403,-0.11450,0.18321,-0.25954,0.01050,-0.15723,0.98853,0.00,0.00,0.00
404,0.01527,0.09160,-0.07634,0.01172,-0.15845,0.98901,0.00,0.00,0.00
405,0.03053,0.05344,0.06870,0.01392,-0.15454,0.98950,0.00,0.00,0.00
406,-0.03817,-0.04580,-0.08397,0.00977,-0.15796,0.98462,0.00,0.00,0.00
407,0.00000,0.23664,-0.09160,0.01807,-0.15747,0.98340,0.00,0.00,0.00
408,-0.21374,0.19084,-0.01527,0.01807,-0.15479,0.98608,0.00,0.00,0.00
409,-0.04580,-0.09160,-0.17557,0.01270,-0.15942,0.99048,0.00,0.00,0.00
410,0.12214,0.29008,-0.18321,0.01221,-0.15747,0.98926,0.00,0.00,0.00
411,-0.14504,0.26718,-0.16794,0.00635,-0.15991,0.97949,0.00,0.00,0.00
412,-0.14504,-0.08397,-0.25191,0.00659,-0.15332,0.98193,0.00,0.00,0.00
413,-0.05344,0.04580,-0.07634,0.01318,-0.15527,0.98218,0.00,0.00,0.00
414,-0.03053,0.07634,-0.16794,0.01270,-0.15039,0.98999,0.00,0.00,0.00
415,-0.08397,0.25954,-0.14504,0.01099,-0.16040,0.98218,0.00,0.00,0.00
416,-0.03053,-0.04580,-0.12977,0.01465,-0.16138,0.98462,0.00,0.00,0.00
417,-0.03817,0.05344,-0.12214,0.01562,-0.16064,0.98730,0.00,0.00,0.00
418,-0.19847,0.05344,-0.09160,0.01807,-0.15576,0.98560,0.00,0.00,0.00
419,-0.12214,-0.08397,-0.17557,0.01709,-0.15894,0.98267,0.00,0.00,0.00
420,-0.11450,-0.15267,-0.27481,0.01562,-0.15820,0.98315,0.00,0.00,0.00
421,-0.20611,0.01527,-0.10687,0.02246,-0.16187,0.98926,0.00,0.00,0.00
422,0.04580,0.00763,-0.01527,0.01587,-0.15674,0.98242,0.00,0.00,0.00
423,-0.12214,0.16794,-0.03053,0.01196,-0.15259,0.98999,0.00,0.00,0.00
424,-0.12214,0.06870,-0.17557,0.01318,-0.15796,0.98755,0.00,0.00,0.00
425,-0.18321,-0.16031,-0.22901,0.00684,-0.16040,0.98877,0.00,0.00,0.00
426,-0.16794,0.16794,-0.06870,0.01343,-0.15649,0.99512,0.00,0.00,0.00
427,-0.14504,0.08397,-0.10687,0.01489,-0.15308,0.99170,0.00,0.00,0.00
428,-0.05344,0.15267,0.08397,0.01953,-0.15039,0.98706,0.00,0.00,0.00
429,-0.14504,-0.16031,-0.01527,0.01074,-0.15918,0.98779,0.00,0.00,0.00
430,-0.20611,-0.14504,-0.21374,0.01758,-0.15259,0.98999,0.00,0.00,0.00
431,-0.08397,0.14504,-0.03053,0.01196,-0.15430,0.99121,0.00,0.00,0.00
432,-0.07634,0.20611,0.01527,0.01343,-0.14502,0.98315,0.00,0.00,0.00
433,-0.20611,-0.02290,-0.09924,0.01147,-0.15430,0.98364,0.00,0.00,0.00
434,-0.05344,0.18321,-0.05344,0.01318,-0.15747,0.98560,0.00,0.00,0.00
435,-0.19084,0.02290,-0.03817,0.01465,-0.15649,0.98633,0.00,0.00,0.00
436,0.12977,-0.07634,-0.08397,0.01636,-0.15503,0.98486,0.00,0.00,0.00
437,-0.19847,-0.19847,-0.20611,0.01294,-0.15869,0.97974,0.00,0.00,0.00
438,-0.04580,0.10687,-0.12977,0.01245,-0.15723,0.98291,0.00,0.00,0.00
439,-0.12214,-0.06870,-0.15267,0.01880,-0.16138,0.98047,0.00,0.00,0.00
440,-0.21374,0.12977,-0.09160,0.01294,-0.15552,0.98657,0.00,0.00,0.00
441,0.09924,0.06870,0.14504,0.01514,-0.15698,0.98877,0.00,0.00,0.00
442,-0.03817,0.12977,-0.03053,0.01270,-0.15845,0.99146,0.00,0.00,0.00
443,-0.17557,0.12214,-0.19847,0.00903,-0.15381,0.98267,0.00,0.00,0.00
444,-0.06870,0.11450,-0.10687,0.00854,-0.15967,0.97925,0.00,0.00,0.00
445,-0.05344,0.16031,-0.09160,0.01196,-0.15869,0.98633,0.00,0.00,0.00
446,-0.22901,0.19847,-0.05344,0.01489,-0.15039,0.98169,0.00,0.00,0.00
447,-0.10687,0.03817,-0.08397,0.01294,-0.14990,0.99292,0.00,0.00,0.00
448,-0.09160,-0.04580,0.04580,0.01343,-0.15771,0.99170,0.00,0.00,0.00
449,-0.06107,0.16794,-0.02290,0.00903,-0.16040,0.98877,0.00,0.00,0.00
450,0.08397,0.30534,-0.01527,0.01123,-0.15552,0.99121,0.00,0.00,0.00
451,-0.13740,-0.11450,-0.19084,0.01147,-0.15723,0.99023,0.00,0.00,0.00
452,-0.12977,-0.02290,-0.09160,0.02148,-0.16211,0.98584,0.00,0.00,0.00
453,-0.06107,-0.14504,-0.14504,0.01611,-0.15918,0.99438,0.00,0.00,0.00
454,-0.00763,-0.11450,-0.11450,0.01392,-0.15649,0.98218,0.00,0.00,0.00
455,-0.10687,-0.03817,-0.16794,0.01562,-0.15771,0.97900,0.00,0.00,0.00
456,-0.05344,0.08397,0.00000,0.01660,-0.15527,0.98145,0.00,0.00,0.00
457,0.02290,-0.06107,-0.09160,0.01514,-0.15845,0.98633,0.00,0.00,0.00
458,-0.04580,-0.02290,-0.14504,0.01587,-0.15723,0.98389,0.00,0.00,0.00
459,0.02290,-0.09924,-0.04580,0.01245,-0.15137,0.98145,0.00,0.00,0.00
460,0.07634,-0.06107,-0.19084,0.00610,-0.15454,0.97852,0.00,0.00,0.00
461,0.09924,0.00763,-0.09924,0.01465,-0.16235,0.98828,0.00,0.00,0.00
462,-0.09924,0.06870,-0.10687,0.01123,-0.15967,0.99194,0.00,0.00,0.00
463,0.06107,-0.12214,-0.09160,0.00879,-0.15991,0.98291,0.00,0.00,0.00
464,-0.23664,-0.03817,-0.08397,0.01343,-0.15405,0.98999,0.00,0.00,0.00
465,-0.09924,0.07634,-0.12214,0.01343,-0.15308,0.98169,0.00,0.00,0.00
466,0.03053,0.02290,0.03817,0.00928,-0.15308,0.98999,0.00,0.00,0.00
467,-0.08397,0.11450,-0.16031,0.01514,-0.16235,0.98462,0.00,0.00,0.00
468,-0.15267,-0.05344,0.06107,0.01440,-0.15698,0.98804,0.00,0.00,0.00
469,-0.24427,0.20611,0.02290,0.01318,-0.15601,0.99243,0.00,0.00,0.00
470,-0.19084,0.06870,-0.13740,0.00708,-0.15771,0.97998,0.00,0.00,0.00
471,0.04580,0.04580,-0.18321,0.00781,-0.16064,0.98999,0.00,0.00,0.00
472,0.01527,0.18321,-0.13740,0.01318,-0.15649,0.98022,0.00,0.00,0.00
473,0.07634,-0.22137,-0.07634,0.01099,-0.15503,0.98340,0.00,0.00,0.00
474,0.01527,-0.24427,-0.04580,0.01245,-0.15723,0.98462,0.00,0.00,0.00
475,-0.11450,0.09160,0.03817,0.01099,-0.15967,0.98389,0.00,0.00,0.00
476,0.09924,0.03053,-0.07634,0.01587,-0.15820,0.98657,0.00,0.00,0.00
477,0.19084,0.04580,0.01527,0.01221,-0.15820,0.98633,0.00,0.00,0.00
478,-0.03053,-0.01527,-0.15267,0.01685,-0.15894,0.98926,0.00,0.00,0.00
479,0.03053,-0.03817,-0.03053,0.01245,-0.15649,0.99072,0.00,0.00,0.00
480,-0.29771,-0.06870,-0.01527,0.01318,-0.15137,0.97974,0.00,0.00,0.00
481,0.00763,-0.18321,-0.06107,0.01196,-0.15845,0.98437,0.00,0.00,0.00
482,0.02290,0.03053,-0.05344,0.01318,-0.16260,0.98242,0.00,0.00,0.00
483,-0.09924,0.06107,0.02290,0.01294,-0.15601,0.97632,0.00,0.00,0.00
484,-0.10687,0.03053,-0.07634,0.01123,-0.16211,0.98901,0.00,0.00,0.00
485,-0.16794,0.05344,0.05344,0.01733,-0.15698,0.98462,0.00,0.00,0.00
486,0.14504,0.11450,-0.03817,0.01050,-0.15747,0.98608,0.00,0.00,0.00
487,-0.18321,-0.06870,0.16031,0.01099,-0.16479,0.98169,0.00,0.00,0.00
488,-0.02290,-0.03053,0.12977,0.00830,-0.15576,0.99072,0.00,0.00,0.00
489,-0.02290,0.17557,0.08397,0.01758,-0.15894,0.98755,0.00,0.00,0.00
490,-0.11450,-0.11450,-0.38931,0.01074,-0.14966,0.98413,0.00,0.00,0.00
491,-0.16794,0.00000,0.01527,0.01587,-0.15527,0.98462,0.00,0.00,0.00
492,-0.16031,-0.18321,-0.15267,0.01196,-0.15796,0.97974,0.00,0.00,0.00
493,-0.08397,0.06107,-0.12977,0.00977,-0.15845,0.98926,0.00,0.00,0.00
494,-0.13740,-0.07634,0.04580,0.01440,-0.15137,0.98730,0.00,0.00,0.00
495,-0.07634,0.03817,-0.07634,0.01147,-0.15332,0.98804,0.00,0.00,0.00
496,-0.08397,-0.01527,-0.04580,0.01465,-0.15454,0.98462,0.00,0.00,0.00
497,-0.07634,0.04580,-0.22901,0.01343,-0.15649,0.98242,0.00,0.00,0.00
498,0.23664,0.08397,-0.19847,0.01147,-0.15674,0.98633,0.00,0.00,0.00
499,-0.03053,-0.05344,-0.06107,0.01001,-0.15918,0.98755,0.00,0.00,0.00
500,-0.09924,0.03053,-0.28244,0.00952,-0.15991,0.99243,0.00,0.00,0.00
501,-0.07634,0.06107,-0.16794,0.01709,-0.15625,0.98462,0.00,0.00,0.00
502,-0.09924,0.04580,-0.13740,0.01514,-0.15576,0.98413,0.00,0.00,0.00
503,0.10687,0.03817,-0.03053,0.01904,-0.15381,0.98706,0.00,0.00,0.00
504,-0.09924,-0.09924,-0.13740,0.01196,-0.15552,0.98071,0.00,0.00,0.00
505,-0.06870,-0.03053,-0.04580,0.01343,-0.15479,0.98682,0.00,0.00,0.00
506,-0.03053,0.01527,-0.05344,0.01855,-0.14893,0.98071,0.00,0.00,0.00
507,-0.08397,-0.13740,-0.00763,0.01562,-0.15308,0.99194,0.00,0.00,0.00
508,0.03053,-0.15267,0.08397,0.01001,-0.15820,0.98193,0.00,0.00,0.00
509,-0.09924,0.04580,-0.22137,0.01001,-0.15576,0.99243,0.00,0.00,0.00
510,-0.10687,-0.03817,-0.10687,0.01001,-0.16016,0.98633,0.00,0.00,0.00
511,0.11450,0.19084,-0.06107,0.00854,-0.16260,0.98560,0.00,0.00,0.00
512,-0.03053,-0.25191,0.01527,0.01147,-0.15967,0.98584,0.00,0.00,0.00
513,-0.15267,0.01527,0.04580,0.01050,-0.16260,0.98437,0.00,0.00,0.00
514,-0.16794,0.01527,-0.17557,0.01294,-0.15430,0.98706,0.00,0.00,0.00
515,-0.09160,-0.12977,-0.09160,0.01587,-0.15845,0.98828,0.00,0.00,0.00
516,-0.05344,0.04580,-0.00763,0.01489,-0.15796,0.98096,0.00,0.00,0.00
517,0.12977,-0.13740,-0.06870,0.01245,-0.15552,0.97900,0.00,0.00,0.00
518,-0.21374,-0.19084,0.06870,0.01489,-0.15845,0.98730,0.00,0.00,0.00
519,-0.10687,-0.22137,-0.13740,0.01440,-0.15430,0.98633,0.00,0.00,0.00
520,-0.15267,-0.19847,0.00763,0.01489,-0.15137,0.98657,0.00,0.00,0.00
521,-0.22901,-0.17557,-0.08397,0.00903,-0.15845,0.98560,0.00,0.00,0.00
522,0.05344,0.21374,-0.12214,0.01538,-0.15869,0.99438,0.00,0.00,0.00
523,0.06870,-0.19084,-0.08397,0.01538,-0.14795,0.98096,0.00,0.00,0.00
524,0.06870,-0.12214,-0.22901,0.01538,-0.15234,0.98242,0.00,0.00,0.00
525,-0.02290,-0.09924,-0.12977,0.01465,-0.15747,0.98560,0.00,0.00,0.00
526,-0.10687,0.12977,-0.15267,0.00830,-0.15283,0.99219,0.00,0.00,0.00
527,0.03817,0.11450,0.09924,0.01636,-0.15649,0.98755,0.00,0.00,0.00
528,0.06870,0.09924,0.06107,0.01270,-0.16040,0.97754,0.00,0.00,0.00
529,-0.05344,0.00763,-0.10687,0.01636,-0.15869,0.98071,0.00,0.00,0.00
530,-0.03817,0.03817,0.03053,0.02002,-0.15259,0.99023,0.00,0.00,0.00
531,0.12977,-0.12977,0.03053,0.01416,-0.15747,0.98560,0.00,0.00,0.00
532,-0.03053,0.05344,0.09160,0.01831,-0.15332,0.98462,0.00,0.00,0.00
533,0.00763,0.06870,-0.05344,0.01685,-0.16260,0.98804,0.00,0.00,0.00
534,-0.06107,-0.04580,0.00763,0.01562,-0.15405,0.98169,0.00,0.00,0.00
535,-0.07634,-0.22137,0.06870,0.01489,-0.16406,0.97656,0.00,0.00,0.00
536,-0.22901,0.09160,0.00000,0.01660,-0.15820,0.97559,0.00,0.00,0.00
537,0.05344,0.06870,0.04580,0.01392,-0.15649,0.98364,0.00,0.00,0.00
538,0.00000,0.00763,-0.15267,0.01514,-0.15405,0.98779,0.00,0.00,0.00
539,0.09160,-0.05344,0.03053,0.01196,-0.15820,0.98437,0.00,0.00,0.00
540,-0.20611,-0.02290,-0.09924,0.01465,-0.15674,0.98462,0.00,0.00,0.00
541,0.01527,-0.25954,-0.06107,0.01050,-0.16138,0.99268,0.00,0.00,0.00
542,0.03817,-0.11450,-0.06107,0.01318,-0.15674,0.98437,0.00,0.00,0.00
543,-0.01527,-0.15267,-0.05344,0.01489,-0.15552,0.99146,0.00,0.00,0.00
544,-0.05344,-0.28244,-0.21374,0.01392,-0.15454,0.97852,0.00,0.00,0.00
545,0.00000,-0.00763,-0.10687,0.00732,-0.15356,0.97876,0.00,0.00,0.00
546,-0.02290,-0.15267,-0.04580,0.00952,-0.15894,0.98975,0.00,0.00,0.00
547,-0.12214,-0.13740,-0.01527,0.02197,-0.15747,0.98755,0.00,0.00,0.00
548,0.02290,-0.10687,0.03817,0.00732,-0.15283,0.98877,0.00,0.00,0.00
549,0.01527,-0.25954,-0.19084,0.01074,-0.15991,0.98340,0.00,0.00,0.00
550,0.03817,-0.07634,-0.06870,0.01196,-0.15649,0.98413,0.00,0.00,0.00
551,0.11450,-0.29008,-0.20611,0.01440,-0.15381,0.98804,0.00,0.00,0.00
552,0.08397,-0.12214,-0.06870,0.01172,-0.15479,0.98877,0.00,0.00,0.00
553,-0.03053,0.06870,-0.05344,0.01733,-0.15552,0.98047,0.00,0.00,0.00
554,-0.07634,0.01527,-0.06107,0.01440,-0.15918,0.98193,0.00,0.00,0.00
555,-0.10687,0.12977,-0.16031,0.02124,-0.15601,0.98779,0.00,0.00,0.00
556,0.03053,-0.12214,-0.02290,0.01343,-0.16357,0.98218,0.00,0.00,0.00
557,-0.05344,-0.09924,-0.22901,0.01587,-0.15527,0.98291,0.00,0.00,0.00
558,0.04580,-0.11450,-0.28244,0.01050,-0.15796,0.98926,0.00,0.00,0.00
559,-0.12977,-0.01527,-0.09160,0.01392,-0.15308,0.98071,0.00,0.00,0.00
560,-0.00763,-0.19084,-0.09924,0.01538,-0.16431,0.98730,0.00,0.00,0.00
561,-0.17557,-0.10687,-0.08397,0.01318,-0.15503,0.98218,0.00,0.00,0.00
562,0.03817,-0.15267,-0.02290,0.01147,-0.15527,0.98071,0.00,0.00,0.00
563,-0.00763,-0.24427,0.06870,0.01440,-0.15283,0.98389,0.00,0.00,0.00
564,-0.09924,-0.07634,0.09924,0.02148,-0.15161,0.98169,0.00,0.00,0.00
565,-0.10687,-0.23664,-0.11450,0.01172,-0.15454,0.98340,0.00,0.00,0.00
566,-0.06870,-0.03817,-0.06107,0.01953,-0.15796,0.98145,0.00,0.00,0.00
567,0.01527,0.03817,-0.02290,0.01221,-0.16064,0.98022,0.00,0.00,0.00
568,0.03053,-0.04580,0.01527,0.01465,-0.15820,0.99243,0.00,0.00,0.00
569,-0.05344,-0.12214,-0.03053,0.01978,-0.15845,0.98291,0.00,0.00,0.00
570,-0.12977,0.03053,0.05344,0.01611,-0.15820,0.98926,0.00,0.00,0.00
571,0.03053,-0.19084,-0.06107,0.01782,-0.15552,0.98535,0.00,0.00,0.00
572,0.09924,-0.05344,-0.17557,0.01489,-0.15576,0.98193,0.00,0.00,0.00
573,0.10687,-0.19084,-0.16794,0.01343,-0.15112,0.97876,0.00,0.00,0.00
574,-0.04580,0.19847,-0.01527,0.01440,-0.15454,0.98999,0.00,0.00,0.00
575,-0.03817,0.04580,0.04580,0.01562,-0.15820,0.98486,0.00,0.00,0.00
576,0.06107,-0.05344,0.04580,0.01611,-0.15479,0.98486,0.00,0.00,0.00
577,-0.01527,-0.07634,-0.09160,0.01172,-0.15527,0.98584,0.00,0.00,0.00
578,-0.03053,0.07634,-0.10687,0.01758,-0.15552,0.98633,0.00,0.00,0.00
579,-0.18321,-0.12977,-0.21374,0.01831,-0.15601,0.98853,0.00,0.00,0.00
580,0.06107,-0.25954,-0.10687,0.01196,-0.15771,0.98975,0.00,0.00,0.00
581,-0.13740,-0.05344,-0.15267,0.01465,-0.15674,0.97998,0.00,0.00,0.00
582,-0.24427,-0.20611,-0.03817,0.01660,-0.15942,0.98511,0.00,0.00,0.00
583,0.06107,-0.06870,-0.01527,0.01416,-0.16187,0.98853,0.00,0.00,0.00
584,-0.05344,-0.21374,-0.17557,0.01733,-0.15112,0.98267,0.00,0.00,0.00
585,0.00000,-0.12977,0.07634,0.01636,-0.15454,0.99023,0.00,0.00,0.00
586,0.07634,0.05344,-0.10687,0.01416,-0.15601,0.98022,0.00,0.00,0.00
587,-0.05344,-0.02290,-0.04580,0.01074,-0.15479,0.98145,0.00,0.00,0.00
588,0.00000,-0.03053,-0.23664,0.00659,-0.15527,0.98315,0.00,0.00,0.00
589,0.03817,-0.05344,0.01527,0.01611,-0.15552,0.98730,0.00,0.00,0.00
590,-0.09924,-0.30534,0.03817,0.02222,-0.15283,0.98926,0.00,0.00,0.00
591,-0.10687,0.14504,-0.12977,0.01147,-0.15991,0.98535,0.00,0.00,0.00
592,-0.05344,0.15267,-0.04580,0.01489,-0.15918,0.98047,0.00,0.00,0.00
593,0.16031,0.01527,-0.19084,0.01440,-0.15503,0.99341,0.00,0.00,0.00
594,0.01527,-0.11450,-0.33588,0.01367,-0.14941,0.98560,0.00,0.00,0.00
595,0.06870,0.08397,-0.09160,0.02319,-0.16187,0.98267,0.00,0.00,0.00
596,-0.11450,0.16794,-0.02290,0.01245,-0.15503,0.98755,0.00,0.00,0.00
597,-0.03053,-0.12214,-0.10687,0.01587,-0.15308,0.98462,0.00,0.00,0.00
598,-0.05344,-0.01527,0.06870,0.01782,-0.15942,0.98437,0.00,0.00,0.00
599,-0.11450,-0.06870,-0.17557,0.01514,-0.16235,0.98169,0.00,0.00,0.00
600,-0.10687,-0.01527,-0.04580,0.01074,-0.15552,0.98657,0.00,0.00,0.00
601,0.03817,0.02290,-0.01527,0.01514,-0.15576,0.97998,0.00,0.00,0.00
602,0.09924,0.07634,-0.06870,0.01636,-0.15869,0.98804,0.00,0.00,0.00
603,0.20611,0.00763,-0.15267,0.01514,-0.15967,0.98999,0.00,0.00,0.00
604,-0.12977,-0.08397,-0.15267,0.01489,-0.15283,0.98315,0.00,0.00,0.00
605,-0.10687,-0.06870,-0.20611,0.01538,-0.16211,0.98218,0.00,0.00,0.00
606,-0.17557,0.02290,-0.08397,0.01807,-0.16040,0.98828,0.00,0.00,0.00
607,-0.07634,0.01527,-0.11450,0.01782,-0.15576,0.98584,0.00,0.00,0.00
608,-0.17557,0.06107,-0.06107,0.01318,-0.15576,0.98437,0.00,0.00,0.00
609,-0.00763,-0.19084,-0.06870,0.01978,-0.15674,0.98242,0.00,0.00,0.00
610,-0.12214,-0.25191,-0.06107,0.01270,-0.15796,0.98608,0.00,0.00,0.00
611,-0.12977,-0.11450,-0.04580,0.01733,-0.15894,0.99170,0.00,0.00,0.00
612,-0.12214,-0.10687,0.00000,0.01001,-0.15527,0.97778,0.00,0.00,0.00
613,0.05344,-0.09160,-0.09160,0.01196,-0.15747,0.98511,0.00,0.00,0.00
614,-0.04580,-0.17557,-0.03053,0.01831,-0.15601,0.99121,0.00,0.00,0.00
615,0.05344,-0.06870,-0.01527,0.01929,-0.16040,0.97949,0.00,0.00,0.00
616,-0.03053,0.03053,-0.14504,0.01172,-0.15308,0.98364,0.00,0.00,0.00
617,-0.09160,0.00000,0.12977,0.01538,-0.15649,0.98096,0.00,0.00,0.00
618,0.15267,-0.11450,-0.12977,0.01611,-0.15479,0.98975,0.00,0.00,0.00
619,-0.16031,0.09924,-0.12214,0.01343,-0.15625,0.99146,0.00,0.00,0.00
620,-0.09924,0.02290,-0.09160,0.01514,-0.16138,0.98267,0.00,0.00,0.00
621,-0.15267,0.06107,-0.14504,0.01343,-0.15649,0.98120,0.00,0.00,0.00
622,0.03817,0.24427,-0.12977,0.01025,-0.15723,0.98511,0.00,0.00,0.00
623,0.08397,0.12977,-0.08397,0.01147,-0.15674,0.98462,0.00,0.00,0.00
624,0.03817,0.22901,-0.11450,0.01050,-0.15991,0.97583,0.00,0.00,0.00
625,0.24427,0.07634,-0.07634,0.01343,-0.15942,0.98755,0.00,0.00,0.00
626,-0.05344,0.01527,-0.03817,0.01758,-0.16138,0.97998,0.00,0.00,0.00
627,-0.09160,0.09924,-0.12977,0.00806,-0.16089,0.98682,0.00,0.00,0.00
628,0.08397,0.04580,0.12977,0.00903,-0.15576,0.98560,0.00,0.00,0.00
629,-0.05344,0.17557,-0.04580,0.01270,-0.15625,0.98608,0.00,0.00,0.00
630,-0.18321,-0.24427,0.11450,0.01636,-0.15088,0.98828,0.00,0.00,0.00
631,-0.05344,0.22901,0.09160,0.01880,-0.15796,0.99146,0.00,0.00,0.00
632,-0.09924,0.09924,-0.12977,0.01367,-0.15576,0.99072,0.00,0.00,0.00
633,0.10687,-0.21374,-0.04580,0.01538,-0.15649,0.98560,0.00,0.00,0.00
634,-0.08397,0.04580,-0.05344,0.00586,-0.15723,0.99023,0.00,0.00,0.00
635,-0.00763,-0.22901,-0.12214,0.01636,-0.15967,0.98535,0.00,0.00,0.00
636,-0.05344,-0.11450,-0.03053,0.01929,-0.15625,0.98389,0.00,0.00,0.00
637,-0.06870,-0.17557,-0.12977,0.01514,-0.16113,0.98267,0.00,0.00,0.00
638,-0.19847,0.16031,-0.15267,0.01221,-0.16455,0.98975,0.00,0.00,0.00
639,0.03817,-0.04580,-0.09160,0.01465,-0.15625,0.98242,0.00,0.00,0.00
640,-0.06870,-0.25191,-0.16794,0.01636,-0.16113,0.98193,0.00,0.00,0.00
641,-0.09160,-0.11450,0.12977,0.01587,-0.15576,0.98828,0.00,0.00,0.00
642,0.13740,0.02290,-0.03817,0.01807,-0.16187,0.98486,0.00,0.00,0.00
643,-0.16794,-0.12214,-0.03817,0.01001,-0.16455,0.98901,0.00,0.00,0.00
644,-0.09924,-0.22901,-0.09924,0.01733,-0.15918,0.98584,0.00,0.00,0.00
645,0.06870,-0.11450,-0.22137,0.01343,-0.16089,0.99219,0.00,0.00,0.00
646,-0.09924,0.06107,-0.16794,0.01440,-0.15942,0.99316,0.00,0.00,0.00
647,-0.06870,0.04580,-0.08397,0.01147,-0.16309,0.98730,0.00,0.00,0.00
648,-0.06870,0.03053,-0.09160,0.01685,-0.15161,0.98755,0.00,0.00,0.00
649,0.09924,-0.29771,-0.06107,0.01147,-0.15576,0.99023,0.00,0.00,0.00
650,-0.09924,-0.17557,-0.07634,0.01367,-0.15601,0.98926,0.00,0.00,0.00
651,0.02290,-0.16794,-0.06870,0.01147,-0.15259,0.98657,0.00,0.00,0.00
652,-0.13740,-0.22137,-0.00763,0.01172,-0.15356,0.98877,0.00,0.00,0.00
653,0.02290,0.21374,-0.03053,0.01538,-0.15942,0.98120,0.00,0.00,0.00
654,0.32061,-0.35115,-0.25954,0.01733,-0.16211,0.98340,0.00,0.00,0.00
655,0.16031,-0.44275,-0.06870,0.01123,-0.15186,0.99414,0.00,0.00,0.00
656,0.16031,-0.22137,-0.24427,0.00806,-0.15479,0.99121,0.00,0.00,0.00
657,0.16794,-0.22901,-0.06870,0.01709,-0.15845,0.97583,0.00,0.00,0.00
658,-0.06870,-0.05344,0.04580,0.01489,-0.15649,0.99316,0.00,0.00,0.00
659,-0.01527,-0.16794,-0.18321,0.01904,-0.15381,0.97900,0.00,0.00,0.00
660,-0.21374,-0.21374,-0.04580,0.00952,-0.15771,0.98584,0.00,0.00,0.00
661,0.29771,0.16031,-0.04580,0.01538,-0.15479,0.98584,0.00,0.00,0.00
662,-0.03817,-0.40458,-0.06870,0.01147,-0.15454,0.98218,0.00,0.00,0.00
663,0.30534,0.38168,-0.06107,0.01953,-0.15356,0.98657,0.00,0.00,0.00
664,0.07634,-0.12214,-0.06870,0.01172,-0.16040,0.99170,0.00,0.00,0.00
665,0.28244,-0.25191,-0.12977,0.01245,-0.15601,0.97607,0.00,0.00,0.00
666,0.00763,0.18321,0.02290,0.00708,-0.16138,0.98779,0.00,0.00,0.00
667,0.64122,-0.43511,-0.03817,0.01929,-0.15674,0.98022,0.00,0.00,0.00
668,0.38168,-0.04580,-0.02290,0.00879,-0.15747,0.99268,0.00,0.00,0.00
669,0.43511,-0.41221,-0.07634,0.01440,-0.15601,0.98804,0.00,0.00,0.00
670,0.32061,-0.44275,-0.12977,0.01660,-0.15625,0.98462,0.00,0.00,0.00
671,0.28244,-0.28244,-0.02290,0.01978,-0.15747,0.98779,0.00,0.00,0.00
672,0.03053,0.01527,-0.08397,0.01392,-0.15479,0.98218,0.00,0.00,0.00
673,-0.02290,-0.06870,-0.25954,0.01001,-0.15381,0.98950,0.00,0.00,0.00
674,-0.00763,0.09160,-0.09160,0.01733,-0.16553,0.97583,0.00,0.00,0.00
675,0.10687,0.07634,0.07634,0.01270,-0.15674,0.98999,0.00,0.00,0.00
676,-0.02290,-0.26718,0.05344,0.00806,-0.15527,0.98633,0.00,0.00,0.00
677,-0.01527,-0.16031,0.01527,0.01172,-0.15356,0.98584,0.00,0.00,0.00
678,0.18321,-0.19847,-0.05344,0.01636,-0.14966,0.98926,0.00,0.00,0.00
679,0.03817,-0.08397,0.00763,0.02197,-0.15332,0.98926,0.00,0.00,0.00
680,0.10687,-0.03817,-0.10687,0.01489,-0.15625,0.98901,0.00,0.00,0.00
681,0.09924,-0.12214,0.00000,0.01367,-0.15796,0.98584,0.00,0.00,0.00
682,-0.12977,-0.17557,-0.07634,0.01001,-0.15674,0.98853,0.00,0.00,0.00
683,-0.07634,-0.12977,-0.10687,0.01318,-0.15039,0.99146,0.00,0.00,0.00
684,-0.10687,-0.08397,-0.04580,0.01855,-0.15698,0.98193,0.00,0.00,0.00
685,0.15267,-0.10687,0.05344,0.02075,-0.15723,0.98706,0.00,0.00,0.00
686,-0.10687,0.10687,-0.09924,0.01392,-0.16284,0.99438,0.00,0.00,0.00
687,0.19847,-0.09160,-0.00763,0.01025,-0.15918,0.99194,0.00,0.00,0.00
688,0.32061,-0.45802,0.06870,0.01343,-0.15332,0.98169,0.00,0.00,0.00
689,0.22901,-0.05344,-0.01527,0.01587,-0.15283,0.98340,0.00,0.00,0.00
690,0.14504,-0.06870,-0.19847,0.02124,-0.16357,0.97998,0.00,0.00,0.00
691,0.35878,-0.04580,-0.02290,0.01465,-0.15747,0.98633,0.00,0.00,0.00
692,0.12214,-0.03817,0.14504,0.01172,-0.15479,0.98413,0.00,0.00,0.00
693,0.12214,-0.20611,-0.29771,0.01489,-0.15015,0.98999,0.00,0.00,0.00
694,0.25954,-0.32824,0.03053,0.01489,-0.16309,0.98853,0.00,0.00,0.00
695,0.27481,-0.30534,-0.10687,0.01953,-0.16455,0.98486,0.00,0.00,0.00
696,0.17557,-0.23664,0.02290,0.01709,-0.15576,0.98413,0.00,0.00,0.00
697,0.29008,-0.17557,-0.09160,0.01538,-0.15259,0.98901,0.00,0.00,0.00
698,0.13740,0.09924,-0.07634,0.02148,-0.15869,0.98633,0.00,0.00,0.00
699,-0.22901,-0.13740,0.09160,0.01440,-0.15967,0.98535,0.00,0.00,0.00
700,-0.12977,-0.03053,-0.04580,0.01440,-0.15454,0.98193,0.00,0.00,0.00
701,0.12214,0.09924,-0.06870,0.00952,-0.15991,0.98437,0.00,0.00,0.00
702,0.14504,-0.05344,-0.12214,0.01392,-0.15747,0.98633,0.00,0.00,0.00
703,0.05344,-0.03817,0.01527,0.01587,-0.15479,0.98047,0.00,0.00,0.00
704,-0.02290,-0.12977,0.03053,0.02002,-0.15649,0.97949,0.00,0.00,0.00
705,-0.12214,-0.03817,-0.02290,0.01440,-0.16211,0.98950,0.00,0.00,0.00
706,-0.32061,0.01527,-0.13740,0.01758,-0.15967,0.98413,0.00,0.00,0.00
707,-0.02290,-0.09160,0.02290,0.01294,-0.16602,0.98169,0.00,0.00,0.00
708,0.18321,0.05344,-0.03053,0.01074,-0.15552,0.98389,0.00,0.00,0.00
709,0.22901,-0.03817,-0.04580,0.01245,-0.15820,0.98096,0.00,0.00,0.00
710,0.22901,-0.42748,-0.18321,0.01660,-0.15552,0.98145,0.00,0.00,0.00
711,0.08397,0.09160,-0.01527,0.01489,-0.15430,0.98608,0.00,0.00,0.00
712,0.03053,-0.09924,0.16031,0.01440,-0.15796,0.99194,0.00,0.00,0.00
713,0.01527,0.19084,-0.09160,0.00952,-0.15063,0.98535,0.00,0.00,0.00
714,0.02290,-0.06107,-0.09160,0.01172,-0.15649,0.98730,0.00,0.00,0.00
715,-0.09924,0.11450,-0.11450,0.01196,-0.15381,0.97729,0.00,0.00,0.00
716,-0.06870,-0.18321,-0.13740,0.01318,-0.15381,0.98877,0.00,0.00,0.00
717,-0.17557,-0.09160,-0.22137,0.01880,-0.14990,0.98877,0.00,0.00,0.00
718,0.03053,-0.20611,-0.05344,0.01050,-0.15649,0.97729,0.00,0.00,0.00
719,0.26718,0.05344,-0.19084,0.01587,-0.15259,0.98950,0.00,0.00,0.00
720,-0.09924,-0.11450,-0.11450,0.01270,-0.15991,0.99194,0.00,0.00,0.00
721,0.00763,0.14504,-0.10687,0.01318,-0.15918,0.97925,0.00,0.00,0.00
722,-0.27481,0.36641,-0.17557,0.02539,-0.15649,0.97998,0.00,0.00,0.00
723,-0.09924,0.00763,-0.00763,0.00757,-0.15063,0.99390,0.00,0.00,0.00
724,-0.32824,0.02290,-0.20611,0.01855,-0.15771,0.97778,0.00,0.00,0.00
725,-0.05344,0.06870,-0.18321,0.01782,-0.16162,0.97510,0.00,0.00,0.00
726,0.15267,-0.21374,-0.05344,0.00586,-0.15405,1.00171,0.00,0.00,0.00
727,-0.31298,-0.03053,-0.08397,0.01392,-0.15479,0.97632,0.00,0.00,0.00
728,-0.08397,0.38931,-0.09160,0.01660,-0.15894,0.99072,0.00,0.00,0.00
729,-0.21374,-0.03817,-0.22137,0.01587,-0.15356,0.98999,0.00,0.00,0.00
730,0.03053,0.07634,-0.17557,0.01880,-0.15259,0.99414,0.00,0.00,0.00
731,-0.09160,-0.07634,-0.18321,0.01611,-0.15405,0.98145,0.00,0.00,0.00
732,-0.38168,0.16031,-0.07634,0.01343,-0.15698,0.98511,0.00,0.00,0.00
733,0.03053,0.01527,-0.09924,0.01270,-0.15381,0.98535,0.00,0.00,0.00
734,-0.09924,0.06870,0.03053,0.01611,-0.15405,0.98389,0.00,0.00,0.00
735,-0.07634,0.04580,-0.12977,0.01196,-0.15894,0.98975,0.00,0.00,0.00
736,-0.20611,0.12214,-0.04580,0.01343,-0.15308,0.98999,0.00,0.00,0.00
737,-0.22137,0.25954,-0.00763,0.01489,-0.15723,0.98291,0.00,0.00,0.00
738,0.00000,-0.06870,-0.08397,0.01660,-0.15625,0.98145,0.00,0.00,0.00
739,-0.29771,0.01527,0.12214,0.01367,-0.15918,0.99219,0.00,0.00,0.00
740,-0.32824,0.15267,-0.05344,0.01050,-0.16162,0.98315,0.00,0.00,0.00
741,-0.32824,0.21374,-0.01527,0.01538,-0.15845,0.98291,0.00,0.00,0.00
742,-0.21374,0.19847,0.01527,0.01343,-0.16211,0.98706,0.00,0.00,0.00
743,-0.25954,-0.06107,-0.19847,0.01123,-0.16187,0.98462,0.00,0.00,0.00
744,-0.13740,-0.10687,-0.23664,0.01514,-0.15063,0.99463,0.00,0.00,0.00
745,-0.16794,0.20611,0.19084,0.02124,-0.15747,0.97876,0.00,0.00,0.00
746,0.11450,-0.02290,0.06870,0.01831,-0.15723,0.98267,0.00,0.00,0.00
747,-0.14504,-0.15267,-0.11450,0.01611,-0.15967,0.98560,0.00,0.00,0.00
748,-0.02290,-0.23664,-0.18321,0.01196,-0.14990,0.98389,0.00,0.00,0.00
749,-0.07634,0.15267,-0.06107,0.01440,-0.15454,0.98413,0.00,0.00,0.00
750,-0.09160,-0.01527,-0.08397,0.01367,-0.15503,0.98242,0.00,0.00,0.00
751,-0.06870,-0.29008,0.02290,0.01685,-0.15674,0.98218,0.00,0.00,0.00
752,0.14504,-0.29008,0.00000,0.01660,-0.15430,0.98315,0.00,0.00,0.00
753,0.02290,-0.29771,-0.03053,0.02075,-0.15747,0.98682,0.00,0.00,0.00
754,0.05344,-0.04580,-0.16794,0.01465,-0.15674,0.99292,0.00,0.00,0.00
755,0.28244,-0.12977,-0.09160,0.01294,-0.15869,0.98877,0.00,0.00,0.00
756,0.08397,0.00763,-0.16031,0.01733,-0.15454,0.98633,0.00,0.00,0.00
757,0.35115,-0.18321,0.04580,0.02246,-0.15674,0.99023,0.00,0.00,0.00
758,0.32061,-0.16794,-0.02290,0.01709,-0.15332,0.98828,0.00,0.00,0.00
759,0.29008,-0.29008,0.05344,0.01929,-0.15820,0.98633,0.00,0.00,0.00
760,0.10687,-0.22137,0.00763,0.00928,-0.15894,0.97510,0.00,0.00,0.00
761,0.08397,0.00763,-0.08397,0.01758,-0.15796,0.98022,0.00,0.00,0.00
762,0.40458,-0.07634,-0.02290,0.01172,-0.15747,0.98584,0.00,0.00,0.00
763,0.22137,-0.28244,-0.16031,0.01709,-0.15894,0.98901,0.00,0.00,0.00
764,0.13740,-0.07634,0.00000,0.00952,-0.15649,0.98560,0.00,0.00,0.00
765,0.29771,-0.14504,0.12214,0.01660,-0.15771,0.98389,0.00,0.00,0.00
766,0.42748,-0.26718,-0.10687,0.01660,-0.15771,0.99414,0.00,0.00,0.00
767,0.45038,-0.24427,0.06870,0.01343,-0.15576,0.98633,0.00,0.00,0.00
768,0.35115,-0.28244,-0.15267,0.01294,-0.15869,0.98486,0.00,0.00,0.00
769,0.29771,-0.46565,-0.19847,0.01611,-0.15576,0.99097,0.00,0.00,0.00
770,0.36641,0.03817,0.02290,0.02002,-0.15503,0.98486,0.00,0.00,0.00
771,0.09924,-0.16794,-0.25954,0.01880,-0.15723,0.98364,0.00,0.00,0.00
772,0.14504,-0.19084,-0.05344,0.01392,-0.15771,0.98608,0.00,0.00,0.00
773,-0.03817,0.00763,-0.12214,0.01807,-0.15259,0.99561,0.00,0.00,0.00
774,0.27481,0.03053,-0.11450,0.01587,-0.15527,0.98560,0.00,0.00,0.00
775,0.32824,-0.12977,-0.06870,0.01562,-0.15332,0.98340,0.00,0.00,0.00
776,0.10687,0.00763,-0.12977,0.01807,-0.15698,0.98096,0.00,0.00,0.00
777,0.06870,-0.12214,0.06870,0.01392,-0.14453,0.99170,0.00,0.00,0.00
778,-0.06870,0.23664,-0.16031,0.01855,-0.15649,0.98511,0.00,0.00,0.00
779,0.33588,0.04580,-0.08397,0.01294,-0.15430,0.98462,0.00,0.00,0.00
780,0.20611,0.02290,-0.08397,0.01318,-0.15503,0.98804,0.00,0.00,0.00
781,-0.15267,-0.14504,0.05344,0.01660,-0.15430,0.98584,0.00,0.00,0.00
782,0.32061,0.10687,-0.38168,0.01489,-0.15283,0.98975,0.00,0.00,0.00
783,-0.09160,0.02290,-0.09924,0.01440,-0.14966,0.98657,0.00,0.00,0.00
784,-0.03817,0.06107,0.01527,0.00684,-0.16357,0.98877,0.00,0.00,0.00
785,-0.16031,-0.10687,0.03817,0.01562,-0.15234,0.97925,0.00,0.00,0.00
786,-0.12977,0.09160,0.09924,0.01416,-0.15283,0.99023,0.00,0.00,0.00
787,-0.09924,-0.03817,-0.12977,0.01587,-0.14990,0.99146,0.00,0.00,0.00
788,-0.05344,-0.04580,-0.24427,0.01807,-0.15381,0.98779,0.00,0.00,0.00
789,-0.04580,-0.14504,-0.06870,0.01318,-0.15503,0.98633,0.00,0.00,0.00
790,-0.02290,0.01527,-0.12977,0.01733,-0.15894,0.98804,0.00,0.00,0.00
791,-0.08397,0.10687,0.05344,0.02026,-0.15210,0.98535,0.00,0.00,0.00
792,-0.16031,0.07634,-0.03053,0.02051,-0.15234,0.98608,0.00,0.00,0.00
793,-0.18321,0.25191,-0.19847,0.01709,-0.15527,0.99072,0.00,0.00,0.00
794,-0.10687,0.01527,-0.10687,0.01416,-0.15747,0.98926,0.00,0.00,0.00
795,-0.06107,0.17557,-0.04580,0.00903,-0.15576,0.99390,0.00,0.00,0.00
796,-0.03053,-0.11450,-0.19847,0.01099,-0.15527,0.98706,0.00,0.00,0.00
797,-0.16794,0.35115,-0.10687,0.02026,-0.15308,0.98193,0.00,0.00,0.00
798,-0.12977,-0.00763,0.13740,0.02051,-0.16064,0.98267,0.00,0.00,0.00
799,-0.06870,0.06107,-0.02290,0.01685,-0.15674,0.98096,0.00,0.00,0.00
800,-0.17557,0.09160,-0.03053,0.01294,-0.15430,0.99023,0.00,0.00,0.00
801,-0.12977,0.15267,0.18321,0.01733,-0.15747,0.99097,0.00,0.00,0.00
802,-0.10687,0.16031,-0.04580,0.01294,-0.15308,0.99365,0.00,0.00,0.00
803,-0.12214,-0.15267,0.02290,0.01709,-0.14990,0.98169,0.00,0.00,0.00
804,0.03053,0.08397,0.16031,0.01147,-0.15723,0.98193,0.00,0.00,0.00
805,-0.12214,0.19084,0.00763,0.01538,-0.15210,0.98877,0.00,0.00,0.00
806,-0.11450,0.11450,0.18321,0.01538,-0.15747,0.99146,0.00,0.00,0.00
807,-0.36641,0.05344,-0.03817,0.01050,-0.15894,0.98926,0.00,0.00,0.00
808,-0.38931,0.32061,-0.17557,0.01343,-0.15283,0.98877,0.00,0.00,0.00
809,-0.21374,0.22901,-0.22901,0.01880,-0.15845,0.98633,0.00,0.00,0.00
810,-0.12977,0.11450,-0.08397,0.01416,-0.15356,0.98901,0.00,0.00,0.00
811,-0.20611,-0.11450,-0.13740,0.01782,-0.15479,0.98682,0.00,0.00,0.00
812,-0.21374,0.07634,-0.10687,0.01294,-0.16431,0.98706,0.00,0.00,0.00
813,-0.08397,0.01527,0.05344,0.01392,-0.15332,0.98706,0.00,0.00,0.00
814,0.07634,-0.03053,0.04580,0.01587,-0.15771,0.98267,0.00,0.00,0.00
815,-0.07634,0.03053,-0.19084,0.01489,-0.15234,0.98267,0.00,0.00,0.00
816,-0.11450,0.39695,0.06870,0.01855,-0.15332,0.98560,0.00,0.00,0.00
817,0.00763,0.00000,-0.06107,0.00977,-0.14941,0.98462,0.00,0.00,0.00
818,-0.01527,-0.03817,-0.08397,0.02075,-0.15234,0.98437,0.00,0.00,0.00
819,-0.23664,-0.13740,-0.16031,0.01489,-0.16260,0.98779,0.00,0.00,0.00
820,-0.19084,0.13740,0.01527,0.01904,-0.15503,0.98340,0.00,0.00,0.00
821,-0.17557,0.07634,-0.03817,0.01538,-0.15552,0.98877,0.00,0.00,0.00
822,0.03053,-0.09160,-0.14504,0.01611,-0.15454,0.97949,0.00,0.00,0.00
823,-0.19847,-0.07634,-0.13740,0.01172,-0.15552,0.98633,0.00,0.00,0.00
824,-0.11450,0.03053,-0.13740,0.01782,-0.16040,0.97949,0.00,0.00,0.00
825,-0.07634,-0.12214,-0.18321,0.01001,-0.15723,0.98901,0.00,0.00,0.00
826,-0.06870,0.01527,-0.22137,0.01587,-0.15332,0.98657,0.00,0.00,0.00
827,-0.01527,-0.06107,-0.05344,0.01465,-0.15747,0.99243,0.00,0.00,0.00
828,-0.02290,0.16031,-0.16794,0.01685,-0.15625,0.98682,0.00,0.00,0.00
829,-0.06107,-0.22901,0.03053,0.01050,-0.16211,0.99341,0.00,0.00,0.00
830,-0.18321,-0.05344,0.03053,0.01929,-0.15869,0.98975,0.00,0.00,0.00
831,-0.04580,-0.15267,-0.19847,0.01807,-0.16089,0.98560,0.00,0.00,0.00
832,-0.14504,-0.09160,-0.11450,0.01025,-0.15015,0.98853,0.00,0.00,0.00
833,0.05344,-0.06870,-0.16794,0.02075,-0.15479,0.98096,0.00,0.00,0.00
834,-0.02290,-0.25954,0.01527,0.01392,-0.15356,0.99243,0.00,0.00,0.00
835,0.02290,0.17557,-0.00763,0.00757,-0.15625,0.98560,0.00,0.00,0.00
836,0.19847,-0.05344,-0.16794,0.01489,-0.15894,0.98022,0.00,0.00,0.00
837,0.00000,-0.17557,-0.03053,0.01367,-0.15356,0.98535,0.00,0.00,0.00
838,0.04580,-0.12977,0.12214,0.01147,-0.16040,0.98145,0.00,0.00,0.00
839,0.22901,0.03817,-0.12977,0.01636,-0.15283,0.97852,0.00,0.00,0.00
840,0.08397,-0.02290,-0.02290,0.01343,-0.15918,0.99023,0.00,0.00,0.00
841,0.00000,-0.22901,-0.22137,0.01880,-0.16064,0.98437,0.00,0.00,0.00
842,0.14504,0.01527,-0.08397,0.01245,-0.15552,0.98437,0.00,0.00,0.00
843,0.06107,-0.18321,0.09160,0.01758,-0.16016,0.98901,0.00,0.00,0.00
844,0.12977,-0.39695,-0.04580,0.01978,-0.15381,0.98340,0.00,0.00,0.00
845,0.14504,0.03053,0.07634,0.01562,-0.15430,0.98657,0.00,0.00,0.00
846,0.35878,-0.17557,-0.09924,0.01514,-0.15601,0.98584,0.00,0.00,0.00
847,0.28244,-0.12214,-0.06870,0.01489,-0.14990,0.98706,0.00,0.00,0.00
848,0.16031,-0.22901,-0.12977,0.02026,-0.15674,0.99121,0.00,0.00,0.00
849,0.15267,-0.28244,0.04580,0.01367,-0.15527,0.98755,0.00,0.00,0.00
850,0.47328,-0.23664,-0.11450,0.01025,-0.15576,0.99390,0.00,0.00,0.00
851,0.19847,-0.26718,-0.00763,0.01904,-0.15869,0.99463,0.00,0.00,0.00
852,0.20611,-0.48092,0.06870,0.01050,-0.15259,0.98437,0.00,0.00,0.00
853,0.12977,-0.40458,0.00000,0.01392,-0.15405,0.99097,0.00,0.00,0.00
854,0.09924,0.06870,-0.07634,0.01929,-0.14844,0.98804,0.00,0.00,0.00
855,0.29771,-0.19847,-0.12977,0.01416,-0.15601,0.98730,0.00,0.00,0.00
856,-0.12977,-0.29008,-0.09160,0.01514,-0.15381,0.98340,0.00,0.00,0.00
857,-0.06870,0.19847,-0.03817,0.01733,-0.15625,0.98462,0.00,0.00,0.00
858,0.01527,-0.15267,-0.19084,0.01733,-0.16113,0.98315,0.00,0.00,0.00
859,-0.25954,0.10687,-0.17557,0.01123,-0.15723,0.98413,0.00,0.00,0.00
860,0.16794,-0.02290,-0.09160,0.01733,-0.15698,0.98145,0.00,0.00,0.00
861,0.13740,-0.14504,-0.10687,0.02002,-0.15601,0.98462,0.00,0.00,0.00
862,-0.04580,0.00000,0.14504,0.02002,-0.15723,0.99146,0.00,0.00,0.00
863,-0.06107,-0.16794,0.00763,0.01685,-0.15649,0.98633,0.00,0.00,0.00
864,-0.12214,0.08397,-0.04580,0.02197,-0.15405,0.98340,0.00,0.00,0.00
865,0.03817,0.02290,-0.06107,0.01929,-0.14893,0.97339,0.00,0.00,0.00
866,0.05344,-0.02290,-0.12977,0.01416,-0.15454,0.97974,0.00,0.00,0.00
867,0.00763,0.00763,-0.14504,0.01318,-0.15503,0.99390,0.00,0.00,0.00
868,-0.00763,-0.08397,-0.03053,0.01782,-0.15186,0.98657,0.00,0.00,0.00
869,0.01527,-0.12214,-0.02290,0.01221,-0.15503,0.98584,0.00,0.00,0.00
870,0.16794,0.08397,-0.12977,0.01855,-0.15723,0.99048,0.00,0.00,0.00
871,0.03053,-0.00763,-0.16794,0.01392,-0.15723,0.98145,0.00,0.00,0.00
872,-0.10687,0.01527,0.12977,0.01831,-0.15845,0.99121,0.00,0.00,0.00
873,-0.27481,-0.08397,-0.07634,0.01562,-0.15601,0.98462,0.00,0.00,0.00
874,-0.10687,-0.00763,-0.18321,0.01807,-0.15332,0.98608,0.00,0.00,0.00
875,0.22901,0.11450,-0.13740,0.01587,-0.15308,0.97925,0.00,0.00,0.00
876,0.03053,0.13740,-0.11450,0.01831,-0.15259,0.99292,0.00,0.00,0.00
877,0.15267,0.01527,0.09160,0.01001,-0.15503,0.98218,0.00,0.00,0.00
878,0.09160,-0.09924,0.06107,0.01123,-0.15698,0.99121,0.00,0.00,0.00
879,0.17557,-0.12977,-0.16031,0.01562,-0.15771,0.98242,0.00,0.00,0.00
880,0.05344,-0.06870,0.00763,0.01636,-0.15820,0.98657,0.00,0.00,0.00
881,0.03053,-0.00763,0.00763,0.01538,-0.16064,0.98657,0.00,0.00,0.00
882,0.40458,0.01527,-0.01527,0.01245,-0.15137,0.98291,0.00,0.00,0.00
883,0.07634,0.00000,0.04580,0.02026,-0.15576,0.98755,0.00,0.00,0.00
884,-0.02290,-0.22137,-0.01527,0.02100,-0.15747,0.99609,0.00,0.00,0.00
885,0.04580,-0.23664,-0.03817,0.01147,-0.15112,0.98486,0.00,0.00,0.00
886,-0.03817,-0.13740,-0.09160,0.01855,-0.15210,0.98193,0.00,0.00,0.00
887,0.17557,0.07634,-0.06870,0.01807,-0.16235,0.98682,0.00,0.00,0.00
888,0.00763,-0.28244,-0.06870,0.01660,-0.15186,0.99194,0.00,0.00,0.00
889,0.35115,-0.01527,0.02290,0.01709,-0.14917,0.97925,0.00,0.00,0.00
890,0.14504,-0.00763,0.00000,0.01587,-0.15967,0.98193,0.00,0.00,0.00
891,0.09924,-0.01527,0.14504,0.02002,-0.15308,0.98682,0.00,0.00,0.00
892,0.22901,0.00000,0.13740,0.01685,-0.15405,0.98657,0.00,0.00,0.00
893,0.14504,-0.06870,-0.11450,0.01367,-0.15601,0.98169,0.00,0.00,0.00
894,0.06107,-0.22901,0.01527,0.00903,-0.15381,0.98999,0.00,0.00,0.00
895,0.33588,-0.02290,0.02290,0.01880,-0.15454,0.98145,0.00,0.00,0.00
896,0.32824,-0.32061,-0.09160,0.01392,-0.15332,0.98730,0.00,0.00,0.00
897,0.17557,-0.12214,-0.02290,0.01733,-0.15454,0.98096,0.00,0.00,0.00
898,0.24427,-0.13740,-0.05344,0.00562,-0.15601,0.98926,0.00,0.00,0.00
899,0.06107,-0.11450,-0.06870,0.02075,-0.15405,0.97656,0.00,0.00,0.00
900,0.27481,-0.14504,-0.03817,0.01416,-0.15601,0.98511,0.00,0.00,0.00
901,0.09924,-0.06870,-0.19084,0.01270,-0.15405,0.98096,0.00,0.00,0.00
902,-0.09160,-0.00763,-0.01527,0.01733,-0.15112,0.98730,0.00,0.00,0.00
903,0.07634,-0.00763,-0.16031,0.01294,-0.16187,0.98437,0.00,0.00,0.00
904,-0.04580,-0.06870,-0.10687,0.00977,-0.15186,0.98828,0.00,0.00,0.00
905,-0.09924,-0.12977,-0.06870,0.01392,-0.15503,0.98853,0.00,0.00,0.00
906,-0.11450,0.07634,-0.19847,0.01685,-0.15308,0.98584,0.00,0.00,0.00
907,-0.25954,0.09160,-0.02290,0.01782,-0.15479,0.98877,0.00,0.00,0.00
908,-0.13740,0.09160,-0.01527,0.01147,-0.15430,0.98633,0.00,0.00,0.00
909,-0.22137,0.04580,-0.00763,0.02246,-0.15991,0.99609,0.00,0.00,0.00
910,-0.03053,0.13740,-0.08397,0.01953,-0.15186,0.98584,0.00,0.00,0.00
911,-0.14504,0.19847,0.02290,0.01440,-0.15308,0.98462,0.00,0.00,0.00
912,-0.16031,0.16031,-0.06107,0.01440,-0.15479,0.99023,0.00,0.00,0.00
913,-0.23664,-0.01527,-0.11450,0.01904,-0.14673,0.98877,0.00,0.00,0.00
914,0.03817,0.22137,-0.19084,0.01611,-0.15259,0.98560,0.00,0.00,0.00
915,0.08397,0.08397,-0.26718,0.01294,-0.15649,0.98999,0.00,0.00,0.00
916,-0.23664,0.26718,-0.26718,0.01416,-0.16553,0.98267,0.00,0.00,0.00
917,0.26718,-0.06107,-0.07634,0.01392,-0.16187,0.98706,0.00,0.00,0.00
918,-0.01527,0.00763,0.02290,0.01733,-0.15869,0.97681,0.00,0.00,0.00
919,-0.03053,-0.05344,0.05344,0.01392,-0.15210,0.99390,0.00,0.00,0.00
920,0.13740,-0.06107,-0.03053,0.01514,-0.15063,0.98218,0.00,0.00,0.00
921,0.07634,0.01527,-0.11450,0.01685,-0.15967,0.98071,0.00,0.00,0.00
922,0.07634,0.06870,-0.09924,0.01343,-0.15063,0.98193,0.00,0.00,0.00
923,0.10687,-0.06107,0.03053,0.01758,-0.15771,0.99341,0.00,0.00,0.00
924,-0.02290,-0.09924,-0.10687,0.01587,-0.15527,0.98901,0.00,0.00,0.00
925,-0.01527,0.02290,-0.03817,0.01782,-0.15674,0.99072,0.00,0.00,0.00
926,-0.05344,-0.03817,0.03053,0.01685,-0.14868,0.98560,0.00,0.00,0.00
927,0.27481,0.03817,0.05344,0.01562,-0.15308,0.97852,0.00,0.00,0.00
928,0.03817,0.00000,-0.03053,0.01123,-0.15723,0.99414,0.00,0.00,0.00
929,0.05344,-0.00763,-0.12214,0.02002,-0.15625,0.99561,0.00,0.00,0.00
930,0.11450,-0.30534,0.01527,0.01074,-0.14941,0.98657,0.00,0.00,0.00
931,-0.13740,-0.11450,-0.03053,0.01562,-0.15601,0.98975,0.00,0.00,0.00
932,0.03817,0.04580,0.00763,0.01636,-0.15137,0.98950,0.00,0.00,0.00
933,0.17557,-0.07634,-0.03053,0.01318,-0.15894,0.98340,0.00,0.00,0.00
934,-0.03053,0.00000,-0.05344,0.01416,-0.15088,0.97339,0.00,0.00,0.00
935,0.19084,0.05344,0.00000,0.02100,-0.15845,0.98389,0.00,0.00,0.00
936,0.21374,-0.01527,-0.11450,0.01636,-0.15112,0.98413,0.00,0.00,0.00
937,-0.04580,0.12214,0.06870,0.01318,-0.14844,0.97803,0.00,0.00,0.00
938,0.08397,-0.15267,0.09924,0.01587,-0.16016,0.98486,0.00,0.00,0.00
939,0.03053,-0.13740,-0.17557,0.01514,-0.15210,0.98584,0.00,0.00,0.00
940,0.20611,-0.12214,-0.10687,0.01904,-0.15527,0.99072,0.00,0.00,0.00
941,-0.01527,-0.01527,-0.06107,0.01440,-0.15771,0.97510,0.00,0.00,0.00
942,-0.04580,-0.06107,-0.00763,0.02319,-0.15454,0.98877,0.00,0.00,0.00
943,0.03053,0.03817,0.04580,0.01758,-0.15796,0.98193,0.00,0.00,0.00
944,0.09160,-0.04580,-0.03817,0.01636,-0.14844,0.98315,0.00,0.00,0.00
945,0.01527,0.09160,-0.04580,0.01587,-0.15039,0.97827,0.00,0.00,0.00
946,-0.03817,0.13740,-0.03817,0.02148,-0.14990,0.98218,0.00,0.00,0.00
947,0.17557,0.11450,-0.13740,0.01099,-0.15845,0.98608,0.00,0.00,0.00
948,-0.00763,0.06870,-0.03053,0.01782,-0.15259,0.99463,0.00,0.00,0.00
949,0.01527,0.10687,0.10687,0.01782,-0.15576,0.98315,0.00,0.00,0.00
950,-0.25191,0.09160,0.02290,0.01001,-0.15747,0.98437,0.00,0.00,0.00
951,-0.05344,0.12977,-0.04580,0.02441,-0.15576,0.98950,0.00,0.00,0.00
952,-0.05344,-0.09160,-0.12977,0.01782,-0.15454,0.99023,0.00,0.00,0.00
953,-0.06107,0.20611,-0.14504,0.01904,-0.15063,0.98755,0.00,0.00,0.00
954,-0.16794,0.09924,-0.06107,0.01733,-0.15283,0.98584,0.00,0.00,0.00
955,0.00000,0.18321,-0.09924,0.01758,-0.15552,0.98437,0.00,0.00,0.00
956,-0.32061,0.16031,0.01527,0.01172,-0.15552,0.98560,0.00,0.00,0.00
957,-0.06870,0.04580,-0.00763,0.01392,-0.15625,0.98755,0.00,0.00,0.00
958,-0.12977,0.22901,0.03053,0.01489,-0.16089,0.98511,0.00,0.00,0.00
959,0.10687,0.20611,-0.15267,0.01392,-0.15356,0.98950,0.00,0.00,0.00
960,0.06870,-0.12214,0.00763,0.01660,-0.15332,0.98315,0.00,0.00,0.00
961,0.19084,0.15267,0.00763,0.01855,-0.16040,0.99072,0.00,0.00,0.00
962,0.12977,-0.20611,-0.09160,0.01514,-0.15723,0.98511,0.00,0.00,0.00
963,0.05344,-0.20611,-0.09924,0.01147,-0.15454,0.98267,0.00,0.00,0.00
964,-0.12214,-0.02290,-0.03053,0.01514,-0.14771,0.98413,0.00,0.00,0.00
965,0.06107,0.32824,-0.18321,0.01636,-0.15771,0.97754,0.00,0.00,0.00
966,0.11450,-0.07634,-0.04580,0.00977,-0.15454,0.98828,0.00,0.00,0.00
967,-0.09160,0.08397,0.05344,0.01318,-0.16138,0.98145,0.00,0.00,0.00
968,0.01527,-0.03817,-0.08397,0.01099,-0.15356,0.99341,0.00,0.00,0.00
969,-0.17557,0.11450,-0.07634,0.01538,-0.15771,0.98120,0.00,0.00,0.00
970,-0.07634,0.23664,0.00763,0.01050,-0.15503,0.98706,0.00,0.00,0.00
971,0.03817,0.20611,-0.01527,0.01587,-0.15698,0.98242,0.00,0.00,0.00
972,-0.07634,-0.06870,0.11450,0.01050,-0.15308,0.99048,0.00,0.00,0.00
973,-0.05344,0.06870,-0.06107,0.01221,-0.15405,0.98364,0.00,0.00,0.00
974,0.00763,0.03817,-0.07634,0.01147,-0.15894,0.98853,0.00,0.00,0.00
975,-0.11450,0.19084,-0.03817,0.01343,-0.15576,0.99072,0.00,0.00,0.00
976,-0.05344,0.39695,-0.30534,0.01294,-0.15723,0.98560,0.00,0.00,0.00
977,-0.30534,0.15267,-0.22137,0.01489,-0.15063,0.98096,0.00,0.00,0.00
978,-0.34351,0.49618,-0.18321,0.01807,-0.15405,0.97827,0.00,0.00,0.00
979,-0.25191,0.03053,-0.01527,0.00977,-0.15308,0.99243,0.00,0.00,0.00
980,-0.06107,0.33588,-0.19847,0.02246,-0.15381,0.98218,0.00,0.00,0.00
981,-0.11450,-0.16794,-0.12977,0.00781,-0.15747,0.99194,0.00,0.00,0.00
982,0.00000,0.41221,-0.07634,0.02002,-0.15894,0.98267,0.00,0.00,0.00
983,-0.05344,0.19847,-0.14504,0.00317,-0.15527,0.98926,0.00,0.00,0.00
984,-0.06107,0.24427,-0.09924,0.01758,-0.15698,0.97510,0.00,0.00,0.00
985,0.08397,-0.12214,-0.01527,0.01025,-0.15356,0.99780,0.00,0.00,0.00
986,-0.00763,-0.43511,-0.31298,0.01294,-0.15210,0.98047,0.00,0.00,0.00
987,0.06870,-0.12977,-0.06870,0.01636,-0.15479,0.98364,0.00,0.00,0.00
988,-0.08397,0.09160,-0.05344,0.01807,-0.15869,0.98364,0.00,0.00,0.00
989,-0.03053,-0.09924,0.00763,0.01489,-0.15332,0.98169,0.00,0.00,0.00
990,-0.11450,0.16031,-0.21374,0.01074,-0.15088,0.98193,0.00,0.00,0.00
991,-0.09924,0.34351,0.04580,0.01050,-0.15649,1.00024,0.00,0.00,0.00
992,-0.15267,-0.12214,-0.03817,0.01440,-0.15161,0.99097,0.00,0.00,0.00
993,-0.40458,0.19084,-0.06870,0.01636,-0.15649,0.98706,0.00,0.00,0.00
994,-0.04580,0.03053,-0.12977,0.01514,-0.15112,0.98682,0.00,0.00,0.00
995,-0.21374,-0.09160,-0.16031,0.01123,-0.16162,0.98608,0.00,0.00,0.00
996,-0.17557,0.14504,0.00763,0.01685,-0.15576,0.98364,0.00,0.00,0.00
997,-0.23664,0.25954,0.12977,0.01050,-0.15356,0.99048,0.00,0.00,0.00
998,-0.19847,-0.19084,-0.05344,0.01538,-0.15723,0.99243,0.00,0.00,0.00
999,0.00000,0.23664,-0.19084,0.01294,-0.14893,0.98755,0.00,0.00,0.00
1000,0.10687,0.03053,0.01527,0.00903,-0.15845,0.99316,0.00,0.00,0.00
1001,0.12977,-0.16031,-0.18321,0.01172,-0.15161,0.99097,0.00,0.00,0.00
1002,-0.06107,-0.42748,-0.06107,0.01172,-0.15894,0.99072,0.00,0.00,0.00
1003,-0.11450,-0.25191,-0.06870,0.01367,-0.14697,0.97510,0.00,0.00,0.00
1004,0.26718,-0.38168,0.00000,0.01270,-0.15283,0.98657,0.00,0.00,0.00
1005,0.32824,-0.39695,0.00763,0.01514,-0.15112,0.98730,0.00,0.00,0.00
1006,-0.09160,-0.58779,0.02290,0.01782,-0.14795,0.97266,0.00,0.00,0.00
1007,0.00763,-0.24427,0.15267,0.01660,-0.16138,0.98633,0.00,0.00,0.00
1008,0.15267,-1.03053,-0.02290,0.01343,-0.15137,0.99438,0.00,0.00,0.00
1009,0.50382,-0.46565,0.02290,0.01953,-0.16187,0.98584,0.00,0.00,0.00
1010,0.16794,-0.61069,0.18321,0.01221,-0.15234,0.99512,0.00,0.00,0.00
1011,-0.19084,-0.49618,0.01527,0.00952,-0.15063,0.97705,0.00,0.00,0.00
1012,0.04580,-0.52672,-0.08397,0.01050,-0.15723,0.99268,0.00,0.00,0.00
1013,-0.21374,-0.25191,0.15267,0.01074,-0.15283,0.99121,0.00,0.00,0.00
1014,-0.10687,-0.29771,0.08397,0.01489,-0.15918,0.98169,0.00,0.00,0.00
1015,0.45038,-0.56489,0.51145,0.01685,-0.15747,0.98315,0.00,0.00,0.00
1016,0.30534,-0.28244,0.14504,0.01709,-0.14990,0.97754,0.00,0.00,0.00
1017,0.35115,-0.72519,0.26718,0.00903,-0.16553,0.98755,0.00,0.00,0.00
1018,1.13740,-1.27481,0.45038,0.00562,-0.15698,0.99146,0.00,0.00,0.00
1019,1.07634,-1.27481,0.54198,0.00879,-0.16528,0.97168,0.00,0.00,0.00
1020,1.94656,-1.23664,0.70229,0.02075,-0.15894,0.97998,0.00,0.00,0.00
1021,1.35878,-1.45038,0.61069,0.01172,-0.14917,0.98999,0.00,0.00,0.00
1022,1.14504,-0.04580,0.71756,0.03369,-0.14600,0.96021,0.00,0.00,0.00
1023,1.06870,-0.87023,0.67939,-0.00854,-0.16016,1.01611,0.00,0.00,0.00
1024,1.77863,-1.85496,0.57252,0.01270,-0.16406,0.97876,0.00,0.00,0.00
1025,2.64885,-2.39695,0.67176,0.01123,-0.15649,0.99365,0.00,0.00,0.00
1026,2.40458,-2.87023,0.64885,0.02124,-0.14526,0.97974,0.00,0.00,0.00
1027,2.14504,-3.05344,0.29771,0.00439,-0.14429,0.99609,0.00,0.00,0.00
1028,0.83969,-2.37405,0.25954,0.04980,-0.13818,0.93481,0.00,0.00,0.00
1029,0.58779,1.67939,0.45802,0.04150,-0.14917,0.94434,0.00,0.00,0.00
1030,1.56489,2.36641,0.39695,0.02002,-0.15845,0.97705,0.00,0.00,0.00
1031,3.30534,2.48092,0.64885,0.02148,-0.15869,0.98755,0.00,0.00,0.00
1032,2.93893,2.58779,0.32824,0.01562,-0.14648,1.00122,0.00,0.00,0.00
1033,2.32061,2.78626,0.13740,0.04004,-0.15503,0.93774,0.00,0.00,0.00
1034,3.30534,5.83206,0.24427,0.03857,-0.14844,0.93335,0.00,0.00,0.00
1035,3.53435,6.72519,0.19847,0.02051,-0.14209,0.98291,0.00,0.00,0.00
1036,3.03817,7.20611,0.42748,0.02075,-0.14331,0.97095,0.00,0.00,0.00
1037,2.56489,8.16794,0.29771,0.01221,-0.13989,0.99023,0.00,0.00,0.00
1038,1.84733,7.33588,0.32061,0.00244,-0.14453,0.99927,0.00,0.00,0.00
1039,1.29771,7.30534,0.06870,0.00977,-0.14624,0.99072,0.00,0.00,0.00
1040,1.12214,7.42748,0.19084,0.00024,-0.14917,1.00049,0.00,0.00,0.00
1041,0.91603,6.00763,-0.10687,-0.00415,-0.13794,1.00317,0.00,0.00,0.00
1042,0.87023,5.90076,-0.12977,0.00610,-0.15527,0.98706,0.00,0.00,0.00
1043,1.26718,5.29008,-0.14504,-0.00977,-0.14526,1.00171,0.00,0.00,0.00
1044,0.91603,4.67939,-0.26718,0.00049,-0.14893,0.99341,0.00,0.00,0.00
1045,0.88550,3.79389,-0.15267,-0.00586,-0.14819,1.00073,0.00,0.00,0.00
1046,1.16031,3.41221,-0.08397,0.00269,-0.14258,0.97974,0.00,0.00,0.00
1047,1.06870,3.88550,0.06107,-0.00195,-0.13843,0.98584,0.00,0.00,0.00
1048,0.67939,3.32824,0.10687,-0.00513,-0.14893,1.00757,0.00,0.00,0.00
1049,0.58779,2.48092,0.13740,-0.00366,-0.14722,0.99927,0.00,0.00,0.00
1050,0.39695,1.71756,0.32824,-0.00684,-0.14795,0.99658,0.00,0.00,0.00
1051,0.42748,1.15267,0.57252,0.02246,-0.13599,0.94995,0.00,0.00,0.00
1052,0.23664,6.69466,0.46565,0.02881,-0.14063,0.95410,0.00,0.00,0.00
1053,-1.44275,5.49618,-0.93130,-0.00220,-0.13745,0.88550,0.00,0.00,0.00
1054,-0.79389,11.94656,-0.45802,0.00513,-0.13330,0.99731,0.00,0.00,0.00
1055,-1.02290,9.40458,-0.21374,-0.02734,-0.14160,1.02783,0.00,0.00,0.00
1056,-0.44275,7.32824,-0.06870,-0.02441,-0.14600,1.00317,0.00,0.00,0.00
1057,-0.87023,6.38168,0.22901,-0.02930,-0.14258,1.02100,0.00,0.00,0.00
1058,-0.80916,4.19084,0.80916,-0.02344,-0.14355,1.00928,0.00,0.00,0.00
1059,-1.22137,3.88550,0.36641,-0.01074,-0.13599,0.99121,0.00,0.00,0.00
1060,-1.46565,3.54198,0.55725,-0.02344,-0.14551,1.00684,0.00,0.00,0.00
1061,-1.22901,1.69466,0.58779,-0.02563,-0.14795,1.00879,0.00,0.00,0.00
1062,-1.64122,1.23664,0.46565,-0.01172,-0.14795,0.98877,0.00,0.00,0.00
1063,-1.50382,0.54962,0.34351,-0.01562,-0.14868,0.99219,0.00,0.00,0.00
1064,-1.58015,0.36641,0.12977,-0.01587,-0.15405,1.00146,0.00,0.00,0.00
1065,-1.92366,-0.49618,0.32061,-0.02368,-0.14893,1.00928,0.00,0.00,0.00
1066,-1.88550,-2.03053,0.29771,-0.03003,-0.15112,1.01245,0.00,0.00,0.00
1067,-2.33588,-3.67176,0.30534,-0.02734,-0.14600,1.01050,0.00,0.00,0.00
1068,-1.76336,-5.15267,0.29771,-0.02808,-0.14673,1.00903,0.00,0.00,0.00
1069,-1.39695,-7.13740,0.40458,-0.03101,-0.17114,1.01050,0.00,0.00,0.00
1070,-0.49618,-9.21374,0.47328,-0.01855,-0.15967,1.00586,0.00,0.00,0.00
1071,0.12977,-9.07634,0.01527,0.00195,-0.14722,0.96899,0.00,0.00,0.00
1072,-0.10687,-6.54198,-0.63359,0.02954,-0.16138,0.93921,0.00,0.00,0.00
1073,0.73282,-4.38931,-1.15267,0.03467,-0.15601,0.93994,0.00,0.00,0.00
1074,0.38931,-2.32061,-1.69466,-0.01416,-0.14282,1.00293,0.00,0.00,0.00
1075,2.12977,-4.11450,-1.45038,0.01318,-0.16748,0.96777,0.00,0.00,0.00
1076,2.19847,-2.65649,-1.35878,-0.00586,-0.14844,0.99072,0.00,0.00,0.00
1077,2.98473,-4.22901,-1.03053,0.00488,-0.15454,0.98535,0.00,0.00,0.00
1078,3.04580,-2.78626,-1.16031,0.00122,-0.14160,0.97412,0.00,0.00,0.00
1079,3.07634,-2.62595,-1.12214,0.00439,-0.15356,0.97168,0.00,0.00,0.00
1080,3.13740,-1.61069,-0.91603,0.00830,-0.14966,0.97656,0.00,0.00,0.00
1081,3.20611,-1.47328,-0.96183,0.00562,-0.15063,0.97852,0.00,0.00,0.00
1082,3.73282,-0.64885,-1.02290,0.01343,-0.14087,0.97754,0.00,0.00,0.00
1083,3.69466,-0.30534,-0.64122,0.00513,-0.14917,0.97266,0.00,0.00,0.00
1084,4.32061,0.53435,-0.79389,0.00659,-0.15088,0.97656,0.00,0.00,0.00
1085,4.33588,0.17557,-0.35878,-0.00024,-0.14966,0.98706,0.00,0.00,0.00
1086,4.47328,0.45802,-0.06870,0.01270,-0.13721,0.98779,0.00,0.00,0.00
1087,4.51908,1.10687,-0.22137,0.00830,-0.14917,0.97290,0.00,0.00,0.00
1088,4.64885,0.80153,0.26718,0.00732,-0.14063,0.98901,0.00,0.00,0.00
1089,5.07634,0.90840,0.77863,-0.00293,-0.13770,0.97388,0.00,0.00,0.00
1090,5.13740,1.20611,0.80153,0.00488,-0.13013,0.96460,0.00,0.00,0.00
1091,4.12214,1.42748,0.81679,-0.00879,-0.14380,0.97827,0.00,0.00,0.00
1092,3.86260,1.38168,1.33588,0.01245,-0.14233,0.99756,0.00,0.00,0.00
1093,3.45038,2.03053,0.85496,0.00464,-0.13525,0.98999,0.00,0.00,0.00
1094,3.63359,1.53435,1.12977,0.00391,-0.13989,0.99219,0.00,0.00,0.00
1095,3.47328,2.13740,0.73282,0.01270,-0.14063,0.98901,0.00,0.00,0.00
1096,4.21374,3.70992,1.55725,0.02173,-0.13501,0.95239,0.00,0.00,0.00
1097,6.51908,6.74809,2.02290,0.02466,-0.13721,0.94360,0.00,0.00,0.00
1098,6.29771,9.02290,2.00000,0.01318,-0.12915,0.95410,0.00,0.00,0.00
1099,7.21374,10.32061,2.19084,0.02441,-0.14282,0.97510,0.00,0.00,0.00
1100,8.06870,14.41221,2.33588,0.02539,-0.12329,0.95679,0.00,0.00,0.00
1101,8.85496,16.53435,2.12977,0.01099,-0.14331,0.98535,0.00,0.00,0.00
1102,9.99237,19.74046,3.16794,0.02173,-0.11963,0.96484,0.00,0.00,0.00
1103,10.75572,23.67939,4.32061,0.03101,-0.11816,0.97363,0.00,0.00,0.00
1104,10.90840,29.61069,3.17557,0.06909,-0.11987,0.87988,0.00,0.00,0.00
1105,11.97710,37.89313,4.16794,0.04443,-0.13354,0.90942,0.00,0.00,0.00
1106,14.58779,43.63359,4.55725,0.05762,-0.12573,0.90649,0.00,0.00,0.00
1107,16.11450,55.19084,6.13740,0.04492,-0.15649,0.90283,0.00,0.00,0.00
1108,18.82443,61.05344,7.35115,-0.00977,-0.12476,0.94800,0.00,0.00,0.00
1109,23.03817,69.06107,9.87023,0.05371,-0.13989,0.89185,0.00,0.00,0.00
1110,29.29771,86.39695,9.15267,0.11768,-0.17578,0.78369,0.00,0.00,0.00
1111,37.06107,106.89313,12.73282,0.17480,-0.15405,0.75537,0.00,0.00,0.00
1112,56.10687,143.33587,5.61069,0.44458,-0.29053,0.54321,0.00,0.00,0.00
1113,62.80152,188.54962,11.13740,0.13354,-0.11597,0.78320,0.00,0.00,0.00
1114,76.85497,202.69465,5.67176,-0.10791,-0.27783,0.93115,0.00,0.00,0.00
1115,93.54962,214.87022,-1.09160,-0.10229,-0.28271,0.95068,0.00,0.00,0.00
1116,109.28244,235.90840,-11.48092,-0.21729,-0.21313,1.03027,0.00,0.00,0.00
1117,119.59542,250.12977,-22.48092,-0.24414,-0.10718,1.08057,0.00,0.00,0.00
1118,122.16794,250.12977,-19.93893,-0.05396,0.08936,0.91968,0.00,0.00,0.00
1119,116.95420,250.12977,-10.93130,-0.12256,0.13501,0.86768,0.00,0.00,0.00
1120,109.53435,250.12977,-2.29008,-0.24097,0.11670,0.79102,0.00,0.00,0.00
1121,114.26718,250.12977,2.13740,-0.30347,-0.02051,0.78979,0.00,0.00,0.00
1122,128.31297,250.12977,0.25954,-0.45630,-0.11841,0.92065,0.00,0.00,0.00
1123,143.66412,250.12977,-15.00763,-0.47461,-0.31274,1.02563,0.00,0.00,0.00
1124,132.12977,250.12977,-36.54198,-0.63892,-0.22998,1.56860,0.00,0.00,0.00
1125,86.51145,250.12977,-56.91603,-0.71265,-0.08643,1.99994,0.00,0.00,0.00
1126,34.93130,250.12977,-71.66413,-0.84961,0.08374,1.99994,0.00,0.00,0.00
1127,-10.35878,180.63359,-75.27481,-0.90698,0.20898,1.99994,0.00,0.00,0.00
1128,-41.27481,71.58779,-75.66413,-0.82764,0.19507,1.99994,0.00,0.00,0.00
1129,-64.20611,-17.06107,-72.31298,-0.28760,0.16846,1.99994,0.00,0.00,0.00
1130,-79.90077,-65.30535,-66.62596,-0.06738,0.21973,1.79541,0.00,0.00,0.00
1131,-94.84733,-92.75572,-58.54198,0.07349,0.27026,1.17505,0.00,0.00,0.00
1132,-104.25955,-101.28244,-50.38168,0.18091,0.25537,0.77856,0.00,0.00,0.00
1133,-106.56489,-96.63359,-41.00000,0.24536,0.20874,0.54321,0.00,0.00,0.00
1134,-101.10688,-92.32825,-32.09160,0.19678,0.13916,0.51245,0.00,0.00,0.00
1135,-91.86260,-96.09924,-26.25191,0.12598,0.05908,0.60645,0.00,0.00,0.00
1136,-79.85497,-107.70230,-23.36641,0.09790,-0.00317,0.74316,0.00,0.00,0.00
1137,-63.83206,-117.26718,-20.18321,0.06519,-0.03003,0.90869,0.00,0.00,0.00
1138,-53.72519,-135.37403,-18.24427,-0.02783,-0.00513,1.10278,0.00,0.00,0.00
1139,-52.06107,-159.62596,-16.27481,-0.13257,0.02979,1.22583,0.00,0.00,0.00
1140,-56.89313,-182.26718,-15.34351,-0.16797,0.02002,1.24170,0.00,0.00,0.00
1141,-61.21374,-201.51144,-15.55725,-0.22314,-0.04541,1.22119,0.00,0.00,0.00
1142,-62.28244,-218.75572,-18.64886,-0.27808,-0.14478,1.16699,0.00,0.00,0.00
1143,-59.73283,-231.97709,-24.40458,-0.31909,-0.22363,1.09399,0.00,0.00,0.00
1144,-54.20611,-238.95419,-31.54962,-0.33301,-0.26001,1.00098,0.00,0.00,0.00
1145,-48.71755,-240.87786,-37.96183,-0.35327,-0.26318,0.99194,0.00,0.00,0.00
1146,-44.32061,-239.64122,-44.62595,-0.37036,-0.23413,1.01611,0.00,0.00,0.00
1147,-39.78626,-237.96946,-48.70229,-0.43945,-0.14453,1.12549,0.00,0.00,0.00
1148,-34.86259,-239.96183,-48.63359,-0.52563,0.01123,1.24463,0.00,0.00,0.00
1149,-31.09924,-243.12977,-44.03053,-0.56250,0.17676,1.27051,0.00,0.00,0.00
1150,-26.25954,-242.58015,-32.80152,-0.59180,0.34058,1.24048,0.00,0.00,0.00
1151,-21.45038,-237.74809,-17.51908,-0.59033,0.46704,1.16821,0.00,0.00,0.00
1152,-12.54962,-223.61068,1.32061,-0.53955,0.53540,1.14453,0.00,0.00,0.00
1153,-1.90840,-211.77099,20.06107,-0.59082,0.56177,1.28418,0.00,0.00,0.00
1154,8.77099,-205.55725,38.77099,-0.66821,0.55151,1.42261,0.00,0.00,0.00
1155,13.88550,-206.12213,56.00000,-0.72168,0.51929,1.43140,0.00,0.00,0.00
1156,18.57252,-205.60305,70.70993,-0.77075,0.39746,1.41211,0.00,0.00,0.00
1157,23.53435,-201.82443,80.64886,-0.73462,0.20654,1.20044,0.00,0.00,0.00
1158,28.21374,-187.95419,87.21374,-0.69189,0.01636,0.99023,0.00,0.00,0.00
1159,30.73283,-167.83969,89.25191,-0.61987,-0.14331,0.81177,0.00,0.00,0.00
1160,32.81679,-138.65649,85.81680,-0.54858,-0.31787,0.78589,0.00,0.00,0.00
1161,31.80153,-114.61069,79.21374,-0.58325,-0.43335,1.07129,0.00,0.00,0.00
1162,29.54962,-101.00764,71.17558,-0.65088,-0.48853,1.41113,0.00,0.00,0.00
1163,17.71756,-106.91603,56.94656,-0.84106,-0.49805,1.74341,0.00,0.00,0.00
1164,1.23664,-129.67175,39.47328,-0.88013,-0.45654,1.78564,0.00,0.00,0.00
1165,-6.86260,-145.29006,27.19847,-0.76733,-0.37183,1.52124,0.00,0.00,0.00
1166,-10.29771,-147.45800,19.13741,-0.66821,-0.29297,1.23364,0.00,0.00,0.00
1167,-13.35878,-144.29771,13.96947,-0.59692,-0.16016,0.97485,0.00,0.00,0.00
1168,-14.48855,-132.19847,12.91603,-0.46899,-0.08203,0.73364,0.00,0.00,0.00
1169,-14.48855,-109.03054,14.27481,-0.37134,-0.04443,0.66626,0.00,0.00,0.00
1170,-17.81679,-96.12214,14.44275,-0.49536,-0.02417,0.89282,0.00,0.00,0.00
1171,-21.02290,-96.68702,12.35114,-0.58740,-0.08301,1.04297,0.00,0.00,0.00
1172,-18.40458,-102.65649,7.93893,-0.61890,-0.15283,1.02539,0.00,0.00,0.00
1173,-12.51908,-104.17558,2.04580,-0.56665,-0.21606,0.80005,0.00,0.00,0.00
1174,-5.38931,-95.63359,-3.99237,-0.50879,-0.21924,0.56274,0.00,0.00,0.00
1175,-0.74809,-80.07633,-9.09160,-0.43066,-0.19800,0.38013,0.00,0.00,0.00
1176,2.92366,-58.23664,-12.77863,-0.38818,-0.19434,0.31763,0.00,0.00,0.00
1177,5.68702,-38.98473,-15.56488,-0.40234,-0.16821,0.38696,0.00,0.00,0.00
1178,6.64885,-24.81679,-18.10687,-0.42676,-0.14209,0.54297,0.00,0.00,0.00
1179,6.35115,-17.77863,-19.16031,-0.45288,-0.08569,0.62866,0.00,0.00,0.00
1180,5.48092,-11.92366,-18.56489,-0.40918,-0.02466,0.59058,0.00,0.00,0.00
1181,6.47328,-0.56489,-15.29771,-0.32544,0.02173,0.48657,0.00,0.00,0.00
1182,6.84733,15.90076,-11.28244,-0.26001,0.04883,0.43481,0.00,0.00,0.00
1183,6.89313,29.77863,-6.56489,-0.26172,0.09351,0.50171,0.00,0.00,0.00
1184,7.59542,41.51145,-0.22901,-0.23047,0.11279,0.53271,0.00,0.00,0.00
1185,10.28244,54.13740,6.16031,-0.18555,0.11914,0.57129,0.00,0.00,0.00
1186,11.58779,36.35878,35.09160,0.19922,0.78101,0.10742,0.00,0.00,0.00
1187,-6.00763,117.25191,31.81679,1.15088,0.03564,0.45313,0.00,0.00,0.00
1188,-17.00763,110.37405,34.62595,1.05957,-0.07666,0.72510,0.00,0.00,0.00
1189,-14.43511,169.88549,36.53435,0.57007,0.21655,0.39160,0.00,0.00,0.00
1190,-15.75572,179.29771,51.16030,-0.15820,0.16357,0.68311,0.00,0.00,0.00
1191,-11.07634,148.56488,54.46565,-0.16992,-0.20996,0.99951,0.00,0.00,0.00
1192,-8.29771,149.26718,55.01527,0.31348,-0.40601,0.64697,0.00,0.00,0.00
1193,-9.63359,174.43511,46.16030,-0.06421,-0.61279,0.92236,0.00,0.00,0.00
1194,2.03817,166.74046,35.87023,-0.23511,-0.77881,1.24756,0.00,0.00,0.00
1195,-4.03817,156.45037,23.16794,-0.23828,-0.67725,1.63892,0.00,0.00,0.00
1196,2.29771,128.11450,15.28244,-0.46948,-0.46411,1.99994,0.00,0.00,0.00
1197,5.77099,89.19847,14.67176,0.12158,-0.30298,1.99994,0.00,0.00,0.00
1198,-27.02290,77.77863,3.41985,-0.71826,-0.10107,1.99994,0.00,0.00,0.00
1199,-37.57252,-38.22901,1.12214,-0.77954,-0.20581,1.97241,0.00,0.00,0.00
1200,-14.72519,-20.63359,1.52672,0.52075,-0.62939,0.24487,0.00,0.00,0.00
1201,16.64886,22.00763,0.26718,0.01123,-0.42480,0.95239,0.00,0.00,0.00
1202,19.05344,-3.04580,0.71756,-0.15430,-0.15552,1.30835,0.00,0.00,0.00
1203,11.03817,-9.11450,-0.29008,0.00049,-0.09009,1.05493,0.00,0.00,0.00
1204,7.38168,-3.74046,0.28244,0.12378,-0.15845,0.85083,0.00,0.00,0.00
1205,8.48092,0.72519,-0.06107,-0.02295,-0.20020,1.04395,0.00,0.00,0.00
1206,6.91603,-6.38931,-0.05344,0.00122,-0.17188,1.02319,0.00,0.00,0.00
1207,5.28244,-4.50382,0.06107,0.05981,-0.14014,0.94043,0.00,0.00,0.00
1208,2.33588,-1.08397,-0.18321,0.05640,-0.14331,0.95874,0.00,0.00,0.00
1209,0.80916,0.64885,-0.39695,0.03271,-0.17627,1.00610,0.00,0.00,0.00
1210,-0.12977,-1.25191,-0.52672,0.00366,-0.16919,1.01025,0.00,0.00,0.00
1211,-1.23664,-1.05344,-0.18321,0.05029,-0.16650,0.96216,0.00,0.00,0.00
1212,-0.93130,0.46565,-0.09160,0.03589,-0.18018,0.95776,0.00,0.00,0.00
1213,-1.50382,1.06870,0.06107,0.03735,-0.17358,0.96826,0.00,0.00,0.00
1214,-1.06870,1.15267,0.61069,0.02441,-0.19141,0.96851,0.00,0.00,0.00
1215,0.83969,2.55725,0.49618,0.03662,-0.19629,0.98145,0.00,0.00,0.00
1216,0.10687,2.75573,0.62595,0.02783,-0.18164,0.99365,0.00,0.00,0.00
1217,0.52672,1.90840,0.52672,0.01855,-0.18335,0.98950,0.00,0.00,0.00
1218,0.48855,1.38931,0.31298,0.02832,-0.16992,0.98682,0.00,0.00,0.00
1219,-1.26718,1.30534,0.14504,0.02759,-0.16772,0.97534,0.00,0.00,0.00
1220,-1.80916,2.67939,0.16794,0.03784,-0.18970,0.96533,0.00,0.00,0.00
1221,0.13740,4.04580,-0.09924,0.02686,-0.20093,0.97803,0.00,0.00,0.00
1222,0.47328,2.90840,-0.25191,0.00610,-0.17944,1.00464,0.00,0.00,0.00
1223,1.25191,1.52672,0.02290,0.02197,-0.20337,0.98047,0.00,0.00,0.00
1224,2.56489,1.77099,-0.09924,0.01245,-0.19263,0.99512,0.00,0.00,0.00
1225,1.94656,-0.05344,-0.04580,0.01465,-0.17407,1.02051,0.00,0.00,0.00
1226,1.90076,-0.57252,-0.03817,0.02466,-0.18262,0.99072,0.00,0.00,0.00
1227,1.56489,-0.90840,0.19847,0.02295,-0.17700,0.98535,0.00,0.00,0.00
1228,1.83206,-0.51145,0.12214,0.03271,-0.19360,0.97778,0.00,0.00,0.00
1229,2.51145,-0.16794,0.35115,0.02734,-0.18311,0.98096,0.00,0.00,0.00
1230,2.50382,-0.38931,0.18321,0.03149,-0.17969,0.96899,0.00,0.00,0.00
1231,3.18321,0.81679,0.42748,0.02832,-0.20752,0.97778,0.00,0.00,0.00
1232,5.98473,0.32824,0.79389,0.03564,-0.20361,0.96240,0.00,0.00,0.00
1233,8.59542,0.70229,0.81679,0.01929,-0.19385,0.98462,0.00,0.00,0.00
1234,9.17557,-0.81679,0.81679,0.03369,-0.17407,0.99219,0.00,0.00,0.00
1235,7.88550,0.41221,0.64885,0.03052,-0.15039,0.97900,0.00,0.00,0.00
1236,6.19084,-0.19084,0.86260,0.00293,-0.17017,1.01318,0.00,0.00,0.00
1237,6.41985,-1.20611,0.61069,0.02393,-0.16162,0.98560,0.00,0.00,0.00
1238,5.42748,-1.12214,0.51908,0.02441,-0.15283,0.99683,0.00,0.00,0.00
1239,4.27481,-0.47328,0.35115,0.02490,-0.15259,0.98535,0.00,0.00,0.00
1240,2.83206,-0.09160,0.42748,0.03198,-0.15649,0.98828,0.00,0.00,0.00
1241,1.85496,-0.51145,0.18321,0.02197,-0.16333,0.99707,0.00,0.00,0.00
1242,1.77099,-0.86260,0.21374,0.02246,-0.16895,0.98584,0.00,0.00,0.00
1243,1.49618,-0.32824,0.13740,0.02490,-0.16016,0.97925,0.00,0.00,0.00
1244,1.04580,-1.01527,0.13740,0.02100,-0.16138,0.99438,0.00,0.00,0.00
1245,0.62595,-0.70229,0.22137,0.02832,-0.17017,0.98193,0.00,0.00,0.00
1246,0.67176,-1.19847,0.20611,0.01904,-0.16406,0.99365,0.00,0.00,0.00
1247,0.17557,-1.25191,0.18321,0.02417,-0.16992,0.98901,0.00,0.00,0.00
1248,-0.26718,-0.99237,0.08397,0.02515,-0.16553,0.99243,0.00,0.00,0.00
1249,-0.45038,-1.20611,0.07634,0.03320,-0.16919,0.97778,0.00,0.00,0.00
1250,-0.42748,-0.25954,0.18321,0.03149,-0.16064,0.98975,0.00,0.00,0.00
1251,-0.61069,0.11450,0.32061,0.03320,-0.16113,0.97217,0.00,0.00,0.00
1252,-0.67176,1.11450,0.20611,0.03149,-0.16504,0.97656,0.00,0.00,0.00
1253,-0.51145,1.61832,0.28244,0.03467,-0.16406,0.98022,0.00,0.00,0.00
1254,-0.62595,1.86260,-0.07634,0.02979,-0.16919,0.99146,0.00,0.00,0.00
1255,-0.31298,2.12214,-0.20611,0.02271,-0.17261,0.98828,0.00,0.00,0.00
1256,-0.30534,1.54962,-0.16031,0.03467,-0.18018,0.99561,0.00,0.00,0.00
1257,0.11450,1.97710,-0.09924,0.02271,-0.17285,0.98193,0.00,0.00,0.00
1258,0.13740,1.58015,-0.02290,0.02368,-0.16919,0.99048,0.00,0.00,0.00
1259,0.54962,1.28244,-0.02290,0.02710,-0.16992,0.98633,0.00,0.00,0.00
1260,0.75573,1.45038,0.19084,0.01880,-0.16577,0.97559,0.00,0.00,0.00
1261,0.62595,1.44275,0.37405,0.02124,-0.16187,0.98218,0.00,0.00,0.00
1262,0.27481,1.93130,0.31298,0.02759,-0.16309,0.98193,0.00,0.00,0.00
1263,-0.11450,1.83206,0.25954,0.01953,-0.16284,1.00391,0.00,0.00,0.00
1264,0.01527,1.96947,0.15267,0.03296,-0.16553,0.99463,0.00,0.00,0.00
1265,-0.76336,4.06107,-0.39695,0.02588,-0.16113,0.95020,0.00,0.00,0.00
1266,-1.23664,4.45802,-0.55725,0.03076,-0.16479,0.98535,0.00,0.00,0.00
1267,-1.89313,4.60305,-0.41985,0.01782,-0.16113,0.96948,0.00,0.00,0.00
1268,-1.33588,3.82443,-0.58779,0.01489,-0.16650,0.97900,0.00,0.00,0.00
1269,-0.64885,4.04580,-0.45802,0.02197,-0.17383,0.97510,0.00,0.00,0.00
1270,0.13740,3.00000,-0.10687,0.01904,-0.17603,0.98120,0.00,0.00,0.00
1271,1.34351,3.09160,0.06870,0.01807,-0.17505,0.97412,0.00,0.00,0.00
1272,1.55725,2.22901,0.41221,0.00610,-0.16309,0.99072,0.00,0.00,0.00
1273,2.73282,3.04580,0.63359,0.03052,-0.17456,0.96753,0.00,0.00,0.00
1274,2.81679,3.14504,0.64885,0.02173,-0.16846,0.99829,0.00,0.00,0.00
1275,2.87023,3.91603,0.64885,0.03198,-0.16797,0.96411,0.00,0.00,0.00
1276,3.33588,4.06870,0.92366,0.01807,-0.17627,0.99243,0.00,0.00,0.00
1277,3.74046,3.57252,0.98473,0.02344,-0.15991,0.96826,0.00,0.00,0.00
1278,4.07634,4.67939,1.03053,0.01709,-0.16406,0.97485,0.00,0.00,0.00
1279,2.45802,3.17557,1.43511,0.00146,-0.16797,1.02417,0.00,0.00,0.00
1280,3.72519,3.59542,1.21374,0.03345,-0.17407,0.96484,0.00,0.00,0.00
1281,3.37405,4.86260,1.08397,0.01855,-0.15479,0.97021,0.00,0.00,0.00
1282,3.48092,4.98473,0.80916,0.02417,-0.16650,0.96606,0.00,0.00,0.00
1283,3.79389,7.09924,0.38168,0.02808,-0.17773,0.94653,0.00,0.00,0.00
1284,4.62595,7.62595,0.63359,-0.01221,-0.17456,0.99951,0.00,0.00,0.00
1285,4.96183,6.58779,1.06107,0.02563,-0.15918,0.96509,0.00,0.00,0.00
1286,5.38931,12.18321,1.08397,0.05713,-0.16260,0.94189,0.00,0.00,0.00
1287,5.98473,15.00763,1.80916,0.02295,-0.15967,0.96289,0.00,0.00,0.00
1288,7.52672,17.12214,2.57252,0.04321,-0.15820,0.94995,0.00,0.00,0.00
1289,8.54962,22.35878,3.40458,0.04419,-0.13989,0.92920,0.00,0.00,0.00
1290,8.68702,26.12977,5.25954,0.01636,-0.15967,0.95044,0.00,0.00,0.00
1291,10.49618,28.86260,6.02290,0.01660,-0.14380,0.96704,0.00,0.00,0.00
1292,12.15267,30.30534,7.38931,0.01514,-0.16577,0.97314,0.00,0.00,0.00
1293,14.17557,34.75572,7.51145,0.02393,-0.17163,0.95874,0.00,0.00,0.00
1294,16.16031,39.74809,8.45802,0.02954,-0.16602,0.92065,0.00,0.00,0.00
1295,19.52672,45.96183,9.17557,0.06250,-0.17603,0.87744,0.00,0.00,0.00
1296,23.31298,55.32824,9.22137,0.07690,-0.14038,0.88208,0.00,0.00,0.00
1297,26.80916,67.61069,8.28244,0.12329,-0.16821,0.87939,0.00,0.00,0.00
1298,31.87786,83.90840,8.56488,0.15259,-0.15649,0.81543,0.00,0.00,0.00
1299,40.34351,110.04580,6.78626,0.20313,-0.27490,0.75586,0.00,0.00,0.00
1300,54.43511,145.95419,7.34351,0.19189,-0.26367,0.68457,0.00,0.00,0.00
1301,66.61833,171.92366,5.13740,0.04199,-0.25781,0.81665,0.00,0.00,0.00
1302,78.67176,191.50381,-4.16794,-0.06616,-0.27344,0.82837,0.00,0.00,0.00
1303,96.89313,210.91603,-18.48855,-0.06323,-0.31860,0.87109,0.00,0.00,0.00
1304,110.80916,233.17556,-29.48092,-0.17456,-0.23999,1.01074,0.00,0.00,0.00
1305,121.25191,250.12977,-38.43511,-0.11353,-0.09863,1.08057,0.00,0.00,0.00
1306,122.81680,250.12977,-35.57252,-0.02490,0.03296,0.89209,0.00,0.00,0.00
1307,127.58779,250.12977,-29.49618,-0.18237,0.02563,0.95239,0.00,0.00,0.00
1308,131.87786,250.12977,-22.09924,-0.23779,-0.02588,0.88354,0.00,0.00,0.00
1309,144.94656,250.12977,-19.06870,-0.29883,-0.12939,0.80103,0.00,0.00,0.00
1310,163.67938,250.12977,-20.01527,-0.43164,-0.16431,0.86938,0.00,0.00,0.00
1311,183.52671,250.12977,-22.76336,-0.55859,-0.18970,0.94751,0.00,0.00,0.00
1312,192.60305,250.12977,-39.56488,-0.50049,-0.25659,1.06201,0.00,0.00,0.00
1313,165.51908,250.12977,-54.50382,-0.63965,0.00977,1.62695,0.00,0.00,0.00
1314,107.14504,250.12977,-65.64886,-0.64966,0.20728,1.86133,0.00,0.00,0.00
1315,44.37405,250.12977,-71.00764,-0.68652,0.32739,1.99994,0.00,0.00,0.00
1316,-15.55725,194.64884,-68.18321,-0.82837,0.38574,1.99994,0.00,0.00,0.00
1317,-63.33588,79.45038,-62.48091,-0.90283,0.28442,1.99994,0.00,0.00,0.00
1318,-88.45038,-31.85496,-60.45801,-0.52539,0.15503,1.99994,0.00,0.00,0.00
1319,-90.90840,-83.82443,-55.48091,-0.13794,0.11230,1.95288,0.00,0.00,0.00
1320,-91.52672,-112.21374,-49.14504,-0.00366,0.12817,1.34155,0.00,0.00,0.00
1321,-95.21374,-126.20611,-43.03816,0.08350,0.14526,0.85889,0.00,0.00,0.00
1322,-98.24428,-125.03054,-36.72519,0.12378,0.15137,0.62695,0.00,0.00,0.00
1323,-97.02291,-122.72519,-31.27481,0.06665,0.10693,0.58325,0.00,0.00,0.00
1324,-92.94657,-127.46566,-27.51145,-0.00415,-0.00146,0.58569,0.00,0.00,0.00
1325,-83.35878,-135.67175,-28.46565,-0.00073,-0.14111,0.59814,0.00,0.00,0.00
1326,-68.24428,-140.58015,-31.46565,0.00781,-0.19995,0.66235,0.00,0.00,0.00
1327,-56.96183,-147.41984,-34.27481,-0.05078,-0.16235,0.82861,0.00,0.00,0.00
1328,-54.14504,-159.47328,-36.54198,-0.10815,-0.09912,1.01514,0.00,0.00,0.00
1329,-55.76336,-175.96946,-37.43511,-0.20166,-0.05444,1.19629,0.00,0.00,0.00
1330,-60.06870,-199.44274,-38.22137,-0.30688,-0.03174,1.27686,0.00,0.00,0.00
1331,-61.97710,-220.68702,-39.60305,-0.32275,-0.06030,1.22729,0.00,0.00,0.00
1332,-59.09160,-233.34350,-40.36641,-0.35400,-0.08081,1.13818,0.00,0.00,0.00
1333,-55.34351,-243.09924,-41.72519,-0.36914,-0.07397,1.00220,0.00,0.00,0.00
1334,-51.46565,-244.03053,-42.92366,-0.36670,-0.10034,0.92212,0.00,0.00,0.00
1335,-45.78626,-239.87786,-44.92366,-0.39746,-0.15259,0.92090,0.00,0.00,0.00
1336,-40.71755,-235.12213,-47.81679,-0.46533,-0.18359,0.99023,0.00,0.00,0.00
1337,-37.35115,-234.03053,-52.03053,-0.54785,-0.15454,1.06519,0.00,0.00,0.00
1338,-34.72519,-233.46565,-53.55725,-0.61841,-0.05029,1.07495,0.00,0.00,0.00
1339,-28.97710,-228.70228,-50.67176,-0.55933,0.04785,0.95166,0.00,0.00,0.00
1340,-20.80153,-213.62596,-44.16030,-0.48438,0.16675,0.92187,0.00,0.00,0.00
1341,-10.58779,-194.03816,-31.22138,-0.47363,0.33105,1.06470,0.00,0.00,0.00
1342,-0.43511,-184.00000,-13.33588,-0.56445,0.49268,1.29883,0.00,0.00,0.00
1343,3.87023,-182.44274,5.73282,-0.65308,0.63208,1.52466,0.00,0.00,0.00
1344,2.23664,-189.07633,25.15267,-0.69238,0.56421,1.35425,0.00,0.00,0.00
1345,10.18321,-178.29771,41.73283,-0.49805,0.37109,1.15479,0.00,0.00,0.00
1346,21.66412,-165.51144,55.03053,-0.59888,0.22510,1.28833,0.00,0.00,0.00
1347,28.96947,-162.37403,62.51145,-0.60742,0.00244,1.38550,0.00,0.00,0.00
1348,35.64122,-160.19084,66.19084,-0.68945,-0.16406,1.53101,0.00,0.00,0.00
1349,33.72519,-168.61068,65.19084,-0.77319,-0.28418,1.58496,0.00,0.00,0.00
1350,23.74809,-175.25190,59.45038,-0.71167,-0.38062,1.42798,0.00,0.00,0.00
1351,10.09924,-169.75572,52.70229,-0.62988,-0.44165,1.23218,0.00,0.00,0.00
1352,-5.89313,-159.79389,43.80152,-0.59180,-0.50269,1.18042,0.00,0.00,0.00
1353,-19.30534,-153.28244,34.52672,-0.61890,-0.51221,1.22266,0.00,0.00,0.00
1354,-31.75573,-151.53434,23.25954,-0.62354,-0.47852,1.17358,0.00,0.00,0.00
1355,-37.77099,-148.04580,13.90076,-0.54370,-0.43774,1.00610,0.00,0.00,0.00
1356,-37.66412,-136.05343,6.64122,-0.44214,-0.37915,0.78174,0.00,0.00,0.00
1357,-31.50382,-120.48092,2.09924,-0.41528,-0.34082,0.72852,0.00,0.00,0.00
1358,-25.74809,-110.26718,-2.55725,-0.43652,-0.27002,0.76587,0.00,0.00,0.00
1359,-23.59542,-100.61069,-6.80153,-0.41504,-0.23364,0.67358,0.00,0.00,0.00
1360,-17.31298,-88.77863,-11.55725,-0.40771,-0.24463,0.60645,0.00,0.00,0.00
1361,-4.85496,-73.45038,-14.53435,-0.35034,-0.29126,0.60229,0.00,0.00,0.00
1362,13.74809,-58.54198,-17.31298,-0.49634,-0.28955,0.93213,0.00,0.00,0.00
1363,16.30534,-69.77100,-20.19847,-0.67163,-0.15552,1.17627,0.00,0.00,0.00
1364,7.03053,-79.06107,-20.87786,-0.56470,-0.07153,0.93604,0.00,0.00,0.00
1365,-3.64122,-68.97710,-17.67176,-0.44678,0.02100,0.56226,0.00,0.00,0.00
1366,-11.18321,-52.87786,-12.46565,-0.40576,0.06055,0.34058,0.00,0.00,0.00
1367,-14.96183,-28.74809,-5.40458,-0.36914,0.07446,0.23096,0.00,0.00,0.00
1368,-11.25191,-6.19847,1.80916,-0.40161,0.09448,0.28418,0.00,0.00,0.00
1369,-5.91603,10.18321,9.16030,-0.42700,0.12280,0.37573,0.00,0.00,0.00
1370,-1.69466,24.13741,14.66412,-0.42847,0.12378,0.43262,0.00,0.00,0.00
1371,3.02290,37.79389,20.28244,-0.43262,0.11475,0.47070,0.00,0.00,0.00
1372,8.84733,52.11450,25.06107,-0.41650,0.10791,0.53418,0.00,0.00,0.00
1373,14.28244,62.25191,29.90840,-0.43457,0.12402,0.61108,0.00,0.00,0.00
1374,18.12214,71.67176,34.46565,-0.39771,0.15283,0.63599,0.00,0.00,0.00
1375,49.29771,83.09161,48.93893,0.92676,-0.10889,0.16406,0.00,0.00,0.00
1376,30.25191,118.21374,36.50382,1.11230,-0.10864,0.98096,0.00,0.00,0.00
1377,39.06107,128.78625,39.93130,1.31787,-0.15137,0.52759,0.00,0.00,0.00
1378,20.80153,192.19084,44.93893,-0.07568,0.35889,0.52368,0.00,0.00,0.00
1379,12.94656,150.84733,58.29008,-0.42969,-0.04443,1.24438,0.00,0.00,0.00
1380,20.87786,129.63359,51.24427,0.23608,-0.41357,0.95068,0.00,0.00,0.00
1381,24.26718,179.08396,47.22901,0.29639,-0.55591,0.57593,0.00,0.00,0.00
1382,16.90840,178.57252,37.64122,-0.35327,-0.61279,0.99292,0.00,0.00,0.00
1383,17.39695,159.31297,28.48092,-0.16772,-0.55933,0.95117,0.00,0.00,0.00
1384,26.92366,176.67938,26.54962,-0.02954,-0.30957,1.12646,0.00,0.00,0.00
1385,23.71756,163.06869,28.93893,-0.30322,0.00244,1.44995,0.00,0.00,0.00
1386,-9.40458,152.58778,31.18321,0.07690,-0.08716,1.99994,0.00,0.00,0.00
1387,-50.64122,150.58778,0.29771,-1.56812,-0.51831,1.99994,0.00,0.00,0.00
1388,-38.58779,-112.45038,-0.01527,-1.54932,-0.24121,1.99994,0.00,0.00,0.00
1389,9.94656,-32.33588,3.20611,1.32861,-0.75537,-0.40308,0.00,0.00,0.00
1390,10.77863,43.19847,1.61069,-0.11816,0.12939,0.93579,0.00,0.00,0.00
1391,0.09924,-1.96947,0.32061,-0.39258,-0.18384,1.57764,0.00,0.00,0.00
1392,3.87023,-17.90840,1.79389,0.03589,-0.27930,0.81152,0.00,0.00,0.00
1393,9.85496,5.99237,1.35115,0.12134,-0.14917,0.84351,0.00,0.00,0.00
1394,1.06870,1.83969,1.16794,-0.10254,-0.11865,1.13159,0.00,0.00,0.00
1395,1.93893,-3.30534,1.09924,-0.01416,-0.21045,0.95923,0.00,0.00,0.00
1396,3.09160,1.80916,0.78626,0.02393,-0.15576,0.93262,0.00,0.00,0.00
1397,0.19084,3.74046,0.58015,-0.02734,-0.15210,0.99170,0.00,0.00,0.00
1398,-1.12214,2.90076,0.16031,-0.02271,-0.17480,0.99902,0.00,0.00,0.00
1399,-1.44275,3.91603,0.38931,-0.02954,-0.16821,1.00000,0.00,0.00,0.00
1400,-2.17557,3.23664,0.32061,-0.02222,-0.17993,0.99365,0.00,0.00,0.00
1401,-1.87023,3.35115,0.58779,-0.01807,-0.18188,0.97388,0.00,0.00,0.00
1402,-1.90076,2.06870,-0.88550,-0.00488,-0.22461,1.03149,0.00,0.00,0.00
1403,-1.72519,2.91603,0.81679,-0.04492,-0.17212,1.00464,0.00,0.00,0.00
1404,-2.48092,1.39695,-0.65649,-0.02563,-0.16968,0.97754,0.00,0.00,0.00
1405,-3.75573,2.25191,-0.27481,-0.02417,-0.17896,0.99561,0.00,0.00,0.00
1406,-3.93893,3.00000,-0.22137,-0.01489,-0.17554,0.97534,0.00,0.00,0.00
1407,-3.30534,4.08397,-0.26718,-0.03345,-0.18311,0.99536,0.00,0.00,0.00
1408,-3.37405,2.85496,-0.09924,-0.04712,-0.18359,1.02100,0.00,0.00,0.00
1409,-2.79389,0.90076,-0.06870,-0.03027,-0.20459,0.99756,0.00,0.00,0.00
1410,-2.51145,1.52672,-0.47328,-0.02173,-0.20093,0.97998,0.00,0.00,0.00
1411,-1.71756,1.41221,-0.35115,-0.02368,-0.19800,0.97144,0.00,0.00,0.00
1412,-1.33588,2.87023,-0.64122,-0.03076,-0.22144,0.95752,0.00,0.00,0.00
1413,0.24427,1.22901,-0.06107,-0.02808,-0.17432,0.99805,0.00,0.00,0.00
1414,-0.06107,2.49618,-0.32061,-0.01611,-0.19092,0.96143,0.00,0.00,0.00
1415,0.09924,2.50382,-0.40458,-0.03540,-0.16943,0.99316,0.00,0.00,0.00
1416,-0.78626,3.49618,-0.78626,-0.00977,-0.17188,0.96533,0.00,0.00,0.00
1417,-1.10687,4.90076,-0.58015,-0.01978,-0.18701,0.97949,0.00,0.00,0.00
1418,-1.74809,5.29008,-0.68702,-0.01611,-0.17163,0.97632,0.00,0.00,0.00
1419,-2.93893,6.22901,-0.77099,-0.02710,-0.17456,0.97461,0.00,0.00,0.00
1420,-1.73282,6.10687,-0.69466,-0.03442,-0.18701,0.98071,0.00,0.00,0.00
1421,-0.67176,5.87023,-0.66412,-0.03101,-0.19702,0.98071,0.00,0.00,0.00
1422,-0.10687,5.86260,-0.91603,-0.03735,-0.19922,0.96484,0.00,0.00,0.00
1423,0.46565,6.44275,-0.69466,-0.04541,-0.18970,0.97021,0.00,0.00,0.00
1424,1.89313,4.84733,-0.47328,-0.05835,-0.19238,0.99487,0.00,0.00,0.00
1425,2.93893,3.22137,-0.50382,-0.05542,-0.20996,0.98633,0.00,0.00,0.00
1426,4.72519,0.16031,-0.22137,-0.06372,-0.20776,0.99048,0.00,0.00,0.00
1427,7.93130,-1.46565,0.06870,-0.04297,-0.21851,0.97681,0.00,0.00,0.00
1428,9.86260,-2.57252,0.26718,-0.04663,-0.19214,0.98047,0.00,0.00,0.00
1429,11.67939,-5.42748,0.69466,-0.06519,-0.20776,0.99048,0.00,0.00,0.00
1430,13.70992,-9.58015,0.96183,-0.05884,-0.19385,0.99927,0.00,0.00,0.00
1431,13.84733,-10.83969,0.51145,-0.04443,-0.16357,1.01733,0.00,0.00,0.00
1432,10.93130,-11.25191,0.35115,-0.04102,-0.15454,1.00146,0.00,0.00,0.00
1433,10.05344,-10.70992,0.11450,-0.03271,-0.14795,1.01685,0.00,0.00,0.00
1434,7.51908,-8.63359,0.29008,0.00098,-0.13867,0.95654,0.00,0.00,0.00
1435,6.09160,-5.19847,-0.22137,-0.02051,-0.15259,0.97656,0.00,0.00,0.00
1436,4.98473,-4.99237,-0.44275,-0.01953,-0.15576,1.00049,0.00,0.00,0.00
1437,3.79389,-2.90840,-0.77863,-0.00977,-0.15918,0.98169,0.00,0.00,0.00
1438,3.49618,-2.26718,-0.86260,-0.02246,-0.15771,0.98853,0.00,0.00,0.00
1439,3.16794,-2.06870,-0.70229,-0.02734,-0.16431,0.98608,0.00,0.00,0.00
1440,2.99237,-2.34351,-0.51145,-0.02734,-0.17212,0.99683,0.00,0.00,0.00
1441,2.84733,-2.75573,-0.27481,-0.02563,-0.16089,0.98218,0.00,0.00,0.00
1442,2.68702,-2.07634,-0.38931,-0.01709,-0.16382,0.97949,0.00,0.00,0.00
1443,2.38168,-1.99237,-0.15267,-0.02124,-0.15991,0.98315,0.00,0.00,0.00
1444,2.43511,-1.46565,-0.33588,-0.01880,-0.15747,0.98633,0.00,0.00,0.00
1445,2.02290,-1.09160,-0.29008,-0.02637,-0.16211,0.97852,0.00,0.00,0.00
1446,1.86260,-0.87023,-0.25954,-0.02539,-0.16187,0.97510,0.00,0.00,0.00
1447,1.90840,-0.17557,-0.41985,-0.02148,-0.16382,0.97437,0.00,0.00,0.00
1448,1.83206,-0.63359,-0.19084,-0.01758,-0.15918,0.99268,0.00,0.00,0.00
1449,1.78626,-0.00763,0.03053,-0.02197,-0.15820,0.98926,0.00,0.00,0.00
1450,1.87786,-0.67176,0.30534,-0.01636,-0.15137,0.98608,0.00,0.00,0.00
1451,1.40458,-0.11450,0.28244,-0.02051,-0.16113,0.98730,0.00,0.00,0.00
1452,1.41985,-0.59542,0.22901,-0.02148,-0.15405,0.99023,0.00,0.00,0.00
1453,1.53435,0.00000,0.30534,-0.01904,-0.15967,0.97974,0.00,0.00,0.00
1454,1.14504,0.23664,0.39695,-0.01367,-0.15454,0.97729,0.00,0.00,0.00
1455,1.02290,0.54198,0.09160,-0.01758,-0.16187,0.98096,0.00,0.00,0.00
1456,1.03817,1.66412,0.24427,-0.00415,-0.15430,0.96655,0.00,0.00,0.00
1457,0.81679,2.64885,0.05344,-0.01392,-0.15796,0.97778,0.00,0.00,0.00
1458,0.88550,2.90076,0.37405,-0.02319,-0.16772,0.98486,0.00,0.00,0.00
1459,0.90840,3.29771,0.26718,-0.01831,-0.15845,0.98462,0.00,0.00,0.00
1460,1.40458,3.01527,0.49618,-0.02417,-0.16455,0.98560,0.00,0.00,0.00
1461,1.44275,3.35878,0.32061,-0.02222,-0.15430,0.97949,0.00,0.00,0.00
1462,1.23664,3.98473,0.58015,-0.02686,-0.15601,0.98608,0.00,0.00,0.00
1463,1.71756,3.70992,0.62595,-0.03394,-0.15454,0.98511,0.00,0.00,0.00
1464,1.81679,2.67176,0.88550,-0.03076,-0.15454,0.99414,0.00,0.00,0.00
1465,2.15267,2.45038,0.82443,-0.02637,-0.15674,0.98730,0.00,0.00,0.00
1466,2.14504,2.28244,0.38931,-0.03247,-0.16919,0.98511,0.00,0.00,0.00
1467,2.69466,2.54198,0.55725,-0.01685,-0.15625,0.97388,0.00,0.00,0.00
1468,3.16031,2.22137,0.53435,-0.02222,-0.16650,0.97583,0.00,0.00,0.00
1469,3.39695,3.13740,0.34351,-0.01904,-0.15210,0.97949,0.00,0.00,0.00
1470,4.46565,4.19084,1.12977,-0.02612,-0.14941,0.99414,0.00,0.00,0.00
1471,5.45802,3.72519,1.22137,-0.02637,-0.15894,0.97925,0.00,0.00,0.00
1472,5.96183,5.41221,1.41221,-0.00903,-0.15820,0.96484,0.00,0.00,0.00
1473,7.08397,7.29771,2.12214,-0.02661,-0.14771,0.96045,0.00,0.00,0.00
1474,7.95420,9.32824,1.55725,-0.00317,-0.16211,0.95312,0.00,0.00,0.00
1475,9.38931,12.47328,1.73282,-0.02075,-0.15283,0.93970,0.00,0.00,0.00
1476,10.06870,14.29771,2.88550,-0.00635,-0.15674,0.96802,0.00,0.00,0.00
1477,10.55725,19.28244,2.70229,0.02588,-0.16138,0.91333,0.00,0.00,0.00
1478,10.53435,25.93130,4.14504,0.01123,-0.13086,0.94727,0.00,0.00,0.00
1479,11.12977,30.65649,2.62595,0.01099,-0.13306,0.91504,0.00,0.00,0.00
1480,11.97710,38.25954,4.34351,-0.00220,-0.09692,0.90820,0.00,0.00,0.00
1481,12.71756,43.03053,4.63359,-0.04688,-0.14990,0.94531,0.00,0.00,0.00
1482,15.42748,42.84733,4.94656,-0.04932,-0.16602,0.95166,0.00,0.00,0.00
1483,18.12214,45.35878,5.85496,-0.05029,-0.12280,0.93921,0.00,0.00,0.00
1484,18.57252,48.46565,6.83969,-0.03809,-0.14331,0.96729,0.00,0.00,0.00
1485,20.48092,51.97710,7.80916,-0.05420,-0.14209,0.98535,0.00,0.00,0.00
1486,24.95420,57.56488,9.43511,-0.01123,-0.15454,0.88257,0.00,0.00,0.00
1487,29.91603,72.29771,10.47328,0.00562,-0.14258,0.79834,0.00,0.00,0.00
1488,35.12977,83.50382,10.26718,0.00635,-0.17773,0.79932,0.00,0.00,0.00
1489,41.25954,99.55725,11.51145,0.05176,-0.20947,0.77832,0.00,0.00,0.00
1490,50.55725,119.65649,13.45802,0.00781,-0.20776,0.90161,0.00,0.00,0.00
1491,58.90076,138.39694,9.65649,-0.03125,-0.19800,0.86011,0.00,0.00,0.00
1492,70.30535,156.32061,7.43511,-0.05469,-0.20850,0.88306,0.00,0.00,0.00
1493,80.06871,172.55725,0.50382,-0.07031,-0.26611,0.93994,0.00,0.00,0.00
1494,102.52672,203.25953,-15.25954,-0.21777,-0.48364,0.87256,0.00,0.00,0.00
1495,143.29006,210.87786,-40.27481,-0.34351,-0.57837,1.04419,0.00,0.00,0.00
1496,185.67938,224.09159,-56.90076,-0.32813,-0.27930,1.05322,0.00,0.00,0.00
1497,207.18321,235.32824,-52.58015,-0.09570,-0.00195,0.91748,0.00,0.00,0.00
1498,194.16030,250.12977,-38.78626,-0.09863,0.31445,0.78418,0.00,0.00,0.00
1499,181.62596,250.12977,-21.18321,-0.22095,0.27002,0.74121,0.00,0.00,0.00
1500,165.18321,250.12977,-10.03817,-0.21289,0.26172,0.62988,0.00,0.00,0.00
1501,164.11450,250.12977,-3.12214,-0.35376,0.09521,0.67383,0.00,0.00,0.00
1502,177.57252,250.12977,-0.16031,-0.53223,0.01880,0.72021,0.00,0.00,0.00
1503,194.74809,250.12977,-10.90840,-0.56860,-0.10571,0.81128,0.00,0.00,0.00
1504,193.48855,250.12977,-27.21374,-0.69604,0.04272,1.29297,0.00,0.00,0.00
1505,155.25953,250.12977,-43.51145,-0.88501,0.23022,1.84912,0.00,0.00,0.00
1506,101.52672,250.12977,-53.25191,-0.78125,0.29224,1.99994,0.00,0.00,0.00
1507,22.61069,240.87022,-68.83969,-0.80933,0.24805,1.99994,0.00,0.00,0.00
1508,-56.77862,117.15267,-75.55725,-1.27173,0.36133,1.99994,0.00,0.00,0.00
1509,-113.67176,-37.54198,-76.83969,-0.88989,0.16943,1.99994,0.00,0.00,0.00
1510,-137.93130,-103.50382,-81.61833,-0.29297,-0.00806,1.99994,0.00,0.00,0.00
1511,-148.76335,-148.42747,-86.95420,-0.15063,-0.10205,1.78223,0.00,0.00,0.00
1512,-149.87786,-172.99237,-92.98474,-0.03760,-0.15479,1.15186,0.00,0.00,0.00
1513,-142.13740,-179.67938,-98.81680,0.05664,-0.17920,0.78882,0.00,0.00,0.00
1514,-131.52671,-177.76335,-101.91603,0.06763,-0.14453,0.63452,0.00,0.00,0.00
1515,-120.76336,-180.64122,-105.16794,-0.01685,-0.13354,0.60254,0.00,0.00,0.00
1516,-112.22138,-184.90075,-108.37405,-0.00635,-0.08154,0.55811,0.00,0.00,0.00
1517,-104.70230,-181.74046,-107.48092,-0.00708,0.02246,0.65674,0.00,0.00,0.00
1518,-99.20611,-187.06106,-102.56489,-0.12622,0.13892,0.89258,0.00,0.00,0.00
1519,-97.81680,-200.25190,-96.74810,-0.20532,0.21216,1.03833,0.00,0.00,0.00
1520,-95.68702,-217.48855,-88.24428,-0.24585,0.27002,1.13477,0.00,0.00,0.00
1521,-89.49619,-232.59541,-78.49619,-0.26733,0.26392,1.16479,0.00,0.00,0.00
1522,-80.89313,-248.80152,-69.86260,-0.32837,0.20605,1.18652,0.00,0.00,0.00
1523,-69.38168,-250.13740,-62.54962,-0.34155,0.14917,1.14697,0.00,0.00,0.00
1524,-57.36641,-250.13740,-55.10687,-0.38208,0.12085,1.14282,0.00,0.00,0.00
1525,-51.09160,-250.13740,-49.29771,-0.44165,0.09375,1.11426,0.00,0.00,0.00
1526,-44.36641,-250.13740,-44.16794,-0.44141,0.00415,1.06616,0.00,0.00,0.00
1527,-35.77862,-250.13740,-41.65649,-0.46802,-0.09570,1.07617,0.00,0.00,0.00
1528,-27.20611,-250.13740,-40.72519,-0.57275,-0.10645,1.13989,0.00,0.00,0.00
1529,-20.73283,-250.13740,-37.25191,-0.67090,0.04370,1.15405,0.00,0.00,0.00
1530,-16.91603,-250.13740,-27.39695,-0.63379,0.23193,1.05664,0.00,0.00,0.00
1531,-16.04580,-234.34350,-11.03817,-0.52954,0.40967,0.99927,0.00,0.00,0.00
1532,-15.09924,-211.67175,10.19084,-0.52856,0.51416,1.16309,0.00,0.00,0.00
1533,-11.32824,-199.67938,31.51145,-0.63892,0.57129,1.36694,0.00,0.00,0.00
1534,-9.94656,-200.44274,49.58779,-0.70483,0.44067,1.49097,0.00,0.00,0.00
1535,0.67176,-198.58778,63.19084,-0.69385,0.18213,1.43530,0.00,0.00,0.00
1536,13.75572,-192.71755,71.96947,-0.71118,0.02295,1.40771,0.00,0.00,0.00
1537,23.10687,-181.36640,77.34352,-0.71826,-0.15234,1.47510,0.00,0.00,0.00
1538,24.21374,-182.51908,77.96947,-0.89111,-0.28979,1.62280,0.00,0.00,0.00
1539,19.97710,-183.39694,74.12977,-0.82153,-0.42407,1.49707,0.00,0.00,0.00
1540,19.29771,-175.54199,68.46566,-0.77905,-0.53052,1.45386,0.00,0.00,0.00
1541,17.52672,-173.67175,59.61069,-0.85132,-0.49609,1.50513,0.00,0.00,0.00
1542,11.29771,-171.45037,52.23664,-0.79004,-0.37134,1.44775,0.00,0.00,0.00
1543,-4.54962,-166.26718,47.76336,-0.82520,-0.22168,1.52002,0.00,0.00,0.00
1544,-28.24427,-169.41984,44.10687,-0.85669,-0.11133,1.49780,0.00,0.00,0.00
1545,-50.48091,-170.03053,40.81679,-0.79468,-0.11328,1.29370,0.00,0.00,0.00
1546,-61.74809,-168.06869,33.75572,-0.73706,-0.20581,0.97925,0.00,0.00,0.00
1547,-55.11450,-156.41221,23.09160,-0.69214,-0.35083,0.72266,0.00,0.00,0.00
1548,-33.51908,-141.00762,10.75572,-0.70435,-0.42188,0.62793,0.00,0.00,0.00
1549,-12.38931,-129.88549,-2.45802,-0.74951,-0.39771,0.61108,0.00,0.00,0.00
1550,2.01527,-119.67176,-13.93893,-0.72217,-0.29858,0.47144,0.00,0.00,0.00
1551,9.64885,-104.41222,-22.35878,-0.67773,-0.23779,0.36108,0.00,0.00,0.00
1552,12.90840,-85.48855,-27.90076,-0.66187,-0.17920,0.31250,0.00,0.00,0.00
1553,13.17557,-68.98474,-30.94657,-0.63208,-0.14819,0.30396,0.00,0.00,0.00
1554,11.45038,-51.69466,-32.61832,-0.61377,-0.09082,0.30713,0.00,0.00,0.00
1555,8.20611,-33.45801,-33.29008,-0.55811,-0.04639,0.28662,0.00,0.00,0.00
1556,7.41221,-13.83206,-33.00000,-0.53052,-0.03149,0.31299,0.00,0.00,0.00
1557,6.71756,1.22137,-32.64122,-0.51416,-0.01880,0.37476,0.00,0.00,0.00
1558,9.04580,16.15267,-32.28244,-0.48242,-0.00562,0.46289,0.00,0.00,0.00
1559,13.04580,27.41222,-30.45802,-0.44141,0.03223,0.54419,0.00,0.00,0.00
1560,17.41985,37.05344,-27.22901,-0.41748,0.08667,0.59302,0.00,0.00,0.00
1561,20.99237,45.58779,-22.32061,-0.36670,0.14185,0.60498,0.00,0.00,0.00
1562,23.19084,55.94656,-13.70992,-0.32813,0.22070,0.60425,0.00,0.00,0.00
1563,23.61832,68.09924,-2.53435,-0.26074,0.26636,0.60913,0.00,0.00,0.00
1564,16.99237,57.41984,74.50382,1.28857,0.83350,0.00146,0.00,0.00,0.00
1565,-28.77863,115.03054,48.87023,1.96387,-0.14355,1.24512,0.00,0.00,0.00
1566,-12.86260,84.96183,52.98473,1.99994,-0.59351,0.87524,0.00,0.00,0.00
1567,20.39695,204.44274,61.95420,0.31909,0.20068,-0.21558,0.00,0.00,0.00
1568,32.00763,155.61068,87.90077,-0.69727,0.03735,0.95410,0.00,0.00,0.00
1569,16.63359,135.78625,69.66413,0.34741,-0.73242,0.72607,0.00,0.00,0.00
1570,12.75572,188.00762,58.10687,0.42114,-0.93945,0.71460,0.00,0.00,0.00
1571,2.29008,193.32824,35.77099,-0.58960,-1.06689,1.66870,0.00,0.00,0.00
1572,10.53435,106.26718,13.03817,-0.68896,-1.02490,1.99994,0.00,0.00,0.00
1573,29.79389,75.95420,4.22137,-0.08691,-0.54053,1.50903,0.00,0.00,0.00
1574,29.25954,74.03817,4.27481,0.07983,-0.12036,1.07813,0.00,0.00,0.00
1575,28.09160,92.29771,9.22901,0.24512,0.03198,0.94238,0.00,0.00,0.00
1576,40.35115,97.62596,21.13741,-0.04443,0.07471,1.47241,0.00,0.00,0.00
1577,29.00763,76.49619,20.19847,-0.26245,-0.13110,1.74072,0.00,0.00,0.00
1578,24.79389,48.13740,15.92366,-0.25757,-0.35718,1.67090,0.00,0.00,0.00
1579,30.64886,32.79389,9.94656,-0.10596,-0.48096,1.25903,0.00,0.00,0.00
1580,32.38168,28.70992,3.70229,0.00269,-0.37769,0.97339,0.00,0.00,0.00
1581,35.56488,32.47328,3.05344,0.05762,-0.13892,0.90088,0.00,0.00,0.00
1582,24.68702,35.12214,7.75573,0.14795,0.04565,1.11035,0.00,0.00,0.00
1583,6.61832,35.18320,4.90076,-0.14258,0.06030,1.39185,0.00,0.00,0.00
1584,-13.09160,14.77099,8.64122,-0.07007,0.07837,1.21265,0.00,0.00,0.00
1585,-26.56489,22.01527,8.46565,0.08643,-0.03394,0.97778,0.00,0.00,0.00
1586,-31.39695,25.14504,8.59542,-0.01489,-0.15186,1.03613,0.00,0.00,0.00
1587,-31.64122,20.50382,8.06107,-0.04541,-0.21509,1.11938,0.00,0.00,0.00
1588,-26.89313,17.58015,6.03817,-0.06274,-0.28564,1.14526,0.00,0.00,0.00
1589,-20.90840,11.51145,4.84733,-0.05762,-0.26929,1.10815,0.00,0.00,0.00
1590,-17.09160,8.27481,3.42748,-0.04126,-0.24023,1.05933,0.00,0.00,0.00
1591,-15.32061,6.12214,2.85496,-0.02051,-0.22607,1.04565,0.00,0.00,0.00
1592,-11.41985,5.89313,1.20611,-0.05347,-0.28833,1.08862,0.00,0.00,0.00
1593,-5.71756,-0.83969,0.80153,-0.06470,-0.27515,1.05444,0.00,0.00,0.00
1594,-0.80916,-1.51908,0.08397,-0.02002,-0.25757,1.00879,0.00,0.00,0.00
1595,1.54198,-3.61069,-0.70229,-0.04248,-0.21558,1.03027,0.00,0.00,0.00
1596,0.92366,-6.20611,-1.22137,-0.02319,-0.19897,1.00732,0.00,0.00,0.00
1597,0.94656,-5.70992,-1.44275,-0.00635,-0.20508,0.97656,0.00,0.00,0.00
1598,2.54198,-5.55725,-1.50382,0.00610,-0.21362,0.96631,0.00,0.00,0.00
1599,3.92366,-3.90840,-1.45802,0.00732,-0.20605,0.98437,0.00,0.00,0.00
1600,3.14504,-3.26718,-1.69466,-0.00098,-0.18799,0.99756,0.00,0.00,0.00
1601,3.92366,-3.58779,-1.64122,-0.01099,-0.21387,0.99512,0.00,0.00,0.00
1602,4.89313,-3.93893,-1.67939,0.01074,-0.20972,0.96899,0.00,0.00,0.00
1603,5.44275,-3.25954,-1.32061,-0.00562,-0.19043,0.97070,0.00,0.00,0.00
1604,5.41985,-4.15267,-1.23664,-0.00415,-0.19312,0.99048,0.00,0.00,0.00
1605,5.45802,-4.54198,-1.09160,0.00513,-0.19360,0.97852,0.00,0.00,0.00
1606,5.75573,-3.59542,-0.91603,0.00488,-0.19678,0.97803,0.00,0.00,0.00
1607,5.82443,-3.49618,-0.80916,-0.00488,-0.18433,0.98267,0.00,0.00,0.00
1608,5.62595,-3.45802,-0.83206,0.00220,-0.18433,0.98267,0.00,0.00,0.00
1609,4.54198,-3.51145,-0.71756,0.00317,-0.16797,0.98047,0.00,0.00,0.00
1610,2.82443,-2.48092,-0.54198,0.02588,-0.16455,0.95557,0.00,0.00,0.00
1611,3.74809,-0.38931,-0.59542,0.00146,-0.19946,0.98950,0.00,0.00,0.00
1612,4.11450,-2.42748,-0.58779,-0.00342,-0.18799,0.98022,0.00,0.00,0.00
1613,3.67939,-0.83206,-0.29008,0.03027,-0.16772,0.93140,0.00,0.00,0.00
1614,3.27481,0.74809,-0.06870,0.00146,-0.18896,0.96655,0.00,0.00,0.00
1615,4.03817,0.11450,0.09924,0.00977,-0.19019,0.97632,0.00,0.00,0.00
1616,3.81679,0.03817,0.27481,0.00513,-0.17627,0.97461,0.00,0.00,0.00
1617,2.81679,0.08397,0.07634,0.00049,-0.18188,0.99976,0.00,0.00,0.00
1618,3.26718,-0.80153,0.10687,-0.00659,-0.17529,0.99292,0.00,0.00,0.00
1619,2.70992,-0.22901,0.23664,0.01831,-0.17725,0.96509,0.00,0.00,0.00
1620,2.01527,-0.16031,0.41985,0.00610,-0.17090,0.97070,0.00,0.00,0.00
1621,0.76336,0.21374,0.51908,0.02173,-0.15845,0.94800,0.00,0.00,0.00
1622,0.00763,2.92366,0.48855,0.00928,-0.18408,0.96533,0.00,0.00,0.00
1623,1.15267,1.49618,0.87786,0.01123,-0.18457,0.96704,0.00,0.00,0.00
1624,1.00000,3.77099,1.20611,0.02759,-0.16284,0.93506,0.00,0.00,0.00
1625,-0.06107,4.79389,1.54198,0.00757,-0.16284,0.98706,0.00,0.00,0.00
1626,-0.64122,3.95420,1.43511,-0.00635,-0.17969,0.98633,0.00,0.00,0.00
1627,-0.09160,4.51908,1.38931,0.01343,-0.18652,0.96851,0.00,0.00,0.00
1628,0.55725,4.79389,1.26718,-0.01001,-0.18433,1.01514,0.00,0.00,0.00
1629,0.20611,3.35878,1.42748,-0.00317,-0.15820,0.98315,0.00,0.00,0.00
1630,-0.21374,6.03817,1.63359,0.02246,-0.19507,0.96484,0.00,0.00,0.00
1631,0.31298,6.54962,1.56489,-0.00049,-0.17212,0.97363,0.00,0.00,0.00
1632,0.25954,7.38168,1.78626,0.00122,-0.18359,0.98315,0.00,0.00,0.00
1633,-0.01527,6.97710,2.00763,-0.00415,-0.17896,0.98511,0.00,0.00,0.00
1634,0.06107,6.99237,2.48092,0.00098,-0.18408,0.96899,0.00,0.00,0.00
1635,0.38168,8.25954,2.00000,0.00610,-0.18481,0.97754,0.00,0.00,0.00
1636,0.17557,8.37405,1.91603,-0.01099,-0.17773,0.97974,0.00,0.00,0.00
1637,0.74809,9.41985,2.00763,-0.00171,-0.16138,1.01953,0.00,0.00,0.00
1638,0.30534,9.26718,1.71756,-0.02466,-0.15967,1.01123,0.00,0.00,0.00
1639,-0.64885,8.25191,1.70992,-0.01807,-0.16699,0.98608,0.00,0.00,0.00
1640,-0.67176,8.80916,1.37405,-0.01855,-0.18140,0.97046,0.00,0.00,0.00
1641,-1.29771,9.00000,0.87023,-0.01367,-0.17896,0.96289,0.00,0.00,0.00
1642,-1.50382,10.09160,0.48092,-0.00488,-0.17432,0.96582,0.00,0.00,0.00
1643,-2.60305,10.97710,0.48855,-0.02100,-0.17236,1.00269,0.00,0.00,0.00
1644,-3.31298,10.44275,-0.23664,-0.01392,-0.17700,1.00562,0.00,0.00,0.00
1645,-4.12977,10.48855,-0.54198,-0.06030,-0.17065,1.02539,0.00,0.00,0.00
1646,-3.21374,7.20611,-1.03053,-0.04492,-0.17920,1.02759,0.00,0.00,0.00
1647,-2.74809,7.46565,-0.68702,-0.04492,-0.19556,0.99341,0.00,0.00,0.00
1648,-1.60305,5.13740,-0.01527,-0.04297,-0.18481,0.99219,0.00,0.00,0.00
1649,-1.81679,4.89313,0.36641,-0.03125,-0.18481,0.98999,0.00,0.00,0.00
1650,-1.22901,3.41985,0.54962,-0.03125,-0.18628,0.99658,0.00,0.00,0.00
1651,-1.82443,3.50382,0.50382,-0.03223,-0.18506,0.98364,0.00,0.00,0.00
1652,-1.61832,4.53435,0.28244,-0.02686,-0.18701,0.97095,0.00,0.00,0.00
1653,-1.57252,5.51908,0.00763,-0.01318,-0.18359,0.96826,0.00,0.00,0.00
1654,-1.83969,8.09924,-0.06107,-0.01099,-0.17993,0.97192,0.00,0.00,0.00
1655,-2.16031,9.42748,-0.22137,-0.02759,-0.17871,0.97217,0.00,0.00,0.00
1656,-1.71756,9.46565,-0.13740,-0.04126,-0.16138,0.97827,0.00,0.00,0.00
1657,-1.75573,8.82443,-0.38931,-0.04785,-0.19287,0.99951,0.00,0.00,0.00
1658,-1.33588,9.10687,-0.02290,-0.02808,-0.18262,0.98267,0.00,0.00,0.00
1659,-1.55725,9.56488,-0.12977,-0.03955,-0.18286,0.97119,0.00,0.00,0.00
1660,-0.51145,8.25191,0.12214,-0.05322,-0.19702,0.99585,0.00,0.00,0.00
1661,0.25954,8.00000,0.26718,-0.03345,-0.19287,0.96753,0.00,0.00,0.00
1662,1.05344,9.03817,0.15267,-0.04492,-0.18701,0.96997,0.00,0.00,0.00
1663,1.77099,7.73282,0.21374,-0.06079,-0.19507,0.99634,0.00,0.00,0.00
1664,2.61069,6.37405,0.29771,-0.05420,-0.18799,0.96997,0.00,0.00,0.00
1665,3.02290,7.00763,0.50382,-0.03101,-0.19580,0.97339,0.00,0.00,0.00
1666,4.34351,7.18321,0.63359,-0.03589,-0.19189,0.96387,0.00,0.00,0.00
1667,4.71756,7.51145,0.90840,-0.04590,-0.18555,0.97974,0.00,0.00,0.00
1668,5.71756,6.99237,1.64885,-0.03564,-0.18506,0.97339,0.00,0.00,0.00
1669,6.97710,9.82443,4.98473,-0.07739,-0.14307,0.99951,0.00,0.00,0.00
1670,6.75573,5.82443,4.10687,-0.06250,-0.18457,0.99292,0.00,0.00,0.00
1671,6.80153,5.45802,3.64885,-0.05542,-0.18530,0.98291,0.00,0.00,0.00
1672,7.18321,4.77099,3.90076,-0.07959,-0.17236,0.99390,0.00,0.00,0.00
1673,7.43511,1.89313,3.55725,-0.07056,-0.18750,0.99658,0.00,0.00,0.00
1674,7.69466,0.86260,3.60305,-0.07886,-0.18433,0.98560,0.00,0.00,0.00
1675,8.45038,-0.45802,2.73282,-0.07568,-0.18164,0.97314,0.00,0.00,0.00
1676,8.19847,-0.22137,2.65649,-0.04614,-0.20020,0.96240,0.00,0.00,0.00
1677,8.72519,0.22137,2.31298,-0.06934,-0.17529,0.99390,0.00,0.00,0.00
1678,9.31298,-0.08397,2.70229,-0.03906,-0.17773,0.97729,0.00,0.00,0.00
1679,9.55725,2.51145,1.85496,-0.04004,-0.15723,0.96533,0.00,0.00,0.00
1680,9.78626,3.99237,3.52672,-0.03564,-0.15503,0.97900,0.00,0.00,0.00
1681,10.51908,7.70229,3.98473,-0.02002,-0.16382,0.94336,0.00,0.00,0.00
1682,10.54198,11.26718,3.35115,-0.01196,-0.14331,0.93188,0.00,0.00,0.00
1683,10.83969,16.90076,4.66412,-0.02368,-0.14600,0.90649,0.00,0.00,0.00
1684,11.37405,20.54199,4.42748,-0.03247,-0.15405,0.94189,0.00,0.00,0.00
1685,11.96947,24.15267,4.38168,-0.01807,-0.18237,0.96216,0.00,0.00,0.00
1686,14.19084,28.93893,6.14504,-0.04395,-0.14771,0.93481,0.00,0.00,0.00
1687,15.79389,32.94656,6.80916,-0.02417,-0.16675,0.91504,0.00,0.00,0.00
1688,17.12214,39.23664,6.82443,-0.02222,-0.13916,0.91870,0.00,0.00,0.00
1689,18.89313,43.75572,9.77099,-0.05908,-0.13843,0.92310,0.00,0.00,0.00
1690,21.06870,48.25191,8.33588,-0.02808,-0.15210,0.91821,0.00,0.00,0.00
1691,23.12977,55.36641,9.49618,-0.06470,-0.12207,0.94067,0.00,0.00,0.00
1692,26.93130,63.20611,9.44275,-0.00098,-0.16260,0.79590,0.00,0.00,0.00
1693,29.62595,75.72519,9.44275,-0.01099,-0.14966,0.88818,0.00,0.00,0.00
