Packet number,Gyroscope X (deg/s),Gyroscope Y (deg/s),Gyroscope Z (deg/s),Accelerometer X (g),Accelerometer Y (g),Accelerometer Z (g),Magnetometer X (G),Magnetometer Y (G),Magnetometer Z (G)
1,0.091603,0.000000,0.122137,0.004395,0.000732,0.996338,0.00,0.00,0.00
2,0.259542,0.015267,-0.015267,0.001221,-0.008057,1.001953,0.00,0.00,0.00
3,-0.152672,-0.015267,-0.030534,0.001709,-0.005615,0.997559,0.00,0.00,0.00
4,0.015267,0.175573,0.122137,-0.000488,-0.005127,1.001465,0.00,0.00,0.00
5,0.129771,0.137405,-0.061069,0.006348,-0.016602,0.989258,0.00,0.00,0.00
6,0.030534,-0.038168,0.099237,0.002197,-0.003906,1.000000,0.00,0.00,0.00
7,0.137405,0.244275,-0.129771,-0.000488,-0.007568,0.997803,0.00,0.00,0.00
8,0.068702,-0.198473,0.091603,0.001465,-0.004639,0.993896,0.00,0.00,0.00
9,0.183206,0.038168,-0.099237,-0.001221,-0.003418,0.998535,0.00,0.00,0.00
10,0.015267,0.198473,0.129771,0.003418,-0.013184,0.983887,0.00,0.00,0.00
11,-0.106870,-0.160305,0.076336,-0.000488,-0.003662,0.998047,0.00,0.00,0.00
12,0.183206,0.221374,-0.030534,0.006104,-0.006592,1.007080,0.00,0.00,0.00
13,-0.236641,0.114504,0.000000,0.003418,-0.006348,0.996338,0.00,0.00,0.00
14,-0.076336,0.030534,-0.038168,0.000732,-0.008789,0.996826,0.00,0.00,0.00
15,-0.007634,0.061069,-0.022901,0.009766,-0.009521,0.995850,0.00,0.00,0.00
16,0.167939,-0.129771,-0.030534,0.002930,-0.005371,0.999268,0.00,0.00,0.00
17,0.068702,0.068702,0.007634,-0.002686,-0.009766,0.999512,0.00,0.00,0.00
18,-0.022901,0.083969,0.038168,-0.001953,-0.014893,0.989014,0.00,0.00,0.00
19,-0.038168,0.076336,-0.038168,-0.002197,-0.009277,1.000488,0.00,0.00,0.00
20,0.038168,0.106870,-0.038168,0.005859,-0.013428,0.996338,0.00,0.00,0.00
21,-0.106870,-0.297710,-0.030534,0.001709,-0.001953,0.991211,0.00,0.00,0.00
22,-0.053435,-0.091603,0.053435,0.003418,-0.002197,1.012695,0.00,0.00,0.00
23,-0.030534,-0.083969,0.160305,0.006592,-0.002686,0.993896,0.00,0.00,0.00
24,-0.160305,-0.198473,-0.114504,-0.001953,0.001953,1.004639,0.00,0.00,0.00
25,-0.145038,-0.145038,-0.045802,0.001465,-0.009277,0.996094,0.00,0.00,0.00
26,-0.061069,-0.045802,-0.213740,-0.003906,-0.008301,0.999023,0.00,0.00,0.00
27,0.068702,0.061069,0.053435,0.002197,-0.009277,1.007812,0.00,0.00,0.00
28,0.030534,-0.022901,0.068702,0.009521,-0.012207,0.994873,0.00,0.00,0.00
29,-0.030534,-0.045802,-0.114504,0.002686,-0.004883,0.989990,0.00,0.00,0.00
30,0.213740,0.213740,-0.022901,0.010010,-0.006592,0.995850,0.00,0.00,0.00
31,0.068702,0.015267,-0.076336,0.001221,-0.003662,0.998047,0.00,0.00,0.00
32,0.106870,0.206107,0.091603,0.002197,0.000488,0.992920,0.00,0.00,0.00
33,-0.122137,-0.045802,-0.175573,0.001709,-0.012207,1.000977,0.00,0.00,0.00
34,0.038168,0.099237,-0.236641,0.000244,-0.004883,1.005127,0.00,0.00,0.00
35,-0.007634,0.183206,0.167939,-0.004150,-0.006592,0.997314,0.00,0.00,0.00
36,-0.091603,-0.083969,-0.083969,0.009033,-0.006348,1.000977,0.00,0.00,0.00
37,0.129771,0.083969,-0.061069,0.003418,-0.008301,1.006592,0.00,0.00,0.00
38,0.076336,0.007634,-0.038168,-0.001709,-0.007324,0.989014,0.00,0.00,0.00
39,0.198473,-0.229008,0.145038,0.000000,-0.006592,1.006348,0.00,0.00,0.00
40,0.007634,0.137405,-0.137405,0.004883,-0.010742,1.003906,0.00,0.00,0.00
41,-0.038168,0.099237,-0.045802,0.000488,-0.012451,0.986328,0.00,0.00,0.00
42,0.030534,0.099237,-0.137405,-0.000977,-0.010986,1.001709,0.00,0.00,0.00
43,0.099237,0.114504,-0.229008,0.000244,-0.010254,0.998779,0.00,0.00,0.00
44,-0.045802,-0.061069,0.206107,0.000000,-0.007568,0.993896,0.00,0.00,0.00
45,0.145038,0.122137,-0.083969,-0.000977,-0.008545,1.006836,0.00,0.00,0.00
46,-0.068702,-0.137405,-0.396947,-0.001953,-0.007080,1.000244,0.00,0.00,0.00
47,0.099237,0.167939,-0.053435,-0.000732,-0.002197,0.993408,0.00,0.00,0.00
48,0.099237,0.145038,0.106870,0.003418,-0.016602,0.997559,0.00,0.00,0.00
49,0.007634,-0.122137,-0.160305,-0.001953,-0.005615,1.004883,0.00,0.00,0.00
50,-0.106870,0.145038,-0.015267,0.001953,-0.008789,0.991211,0.00,0.00,0.00
51,0.015267,-0.099237,0.106870,0.003418,-0.010010,0.993896,0.00,0.00,0.00
52,-0.122137,0.000000,0.083969,0.004150,-0.011475,1.006592,0.00,0.00,0.00
53,0.061069,0.053435,-0.152672,0.000488,-0.012451,0.991455,0.00,0.00,0.00
54,-0.053435,-0.083969,-0.083969,0.003418,-0.005859,1.003418,0.00,0.00,0.00
55,0.061069,0.221374,-0.099237,0.000977,-0.007812,1.000977,0.00,0.00,0.00
56,-0.167939,-0.167939,-0.061069,0.000488,-0.007568,0.997070,0.00,0.00,0.00
57,0.015267,-0.045802,0.007634,-0.009277,-0.003174,1.012207,0.00,0.00,0.00
58,-0.007634,-0.045802,-0.114504,0.007324,-0.007080,0.990967,0.00,0.00,0.00
59,0.038168,0.114504,0.022901,-0.000244,0.001465,1.001221,0.00,0.00,0.00
60,-0.053435,0.106870,-0.083969,-0.005859,-0.008545,1.001465,0.00,0.00,0.00
61,0.122137,-0.068702,-0.068702,-0.002441,-0.003418,0.997070,0.00,0.00,0.00
62,-0.007634,-0.213740,0.015267,-0.002441,-0.007080,1.005859,0.00,0.00,0.00
63,-0.045802,0.137405,-0.007634,0.004639,-0.002930,0.983398,0.00,0.00,0.00
64,0.061069,0.015267,0.145038,0.002197,-0.005615,1.003174,0.00,0.00,0.00
65,0.053435,0.000000,-0.053435,0.002197,-0.005615,1.002930,0.00,0.00,0.00
66,0.045802,-0.030534,-0.038168,-0.004150,-0.004883,0.999023,0.00,0.00,0.00
67,-0.007634,-0.083969,-0.091603,-0.000977,-0.001709,1.007080,0.00,0.00,0.00
68,-0.114504,0.282443,0.076336,-0.001465,-0.007812,1.004639,0.00,0.00,0.00
69,-0.045802,-0.145038,-0.053435,-0.000732,-0.009521,0.998291,0.00,0.00,0.00
70,0.076336,-0.007634,0.083969,-0.000732,-0.005371,1.005371,0.00,0.00,0.00
71,0.053435,0.045802,-0.022901,0.003906,-0.008789,0.998291,0.00,0.00,0.00
72,-0.099237,-0.015267,0.030534,0.003906,-0.010254,0.998047,0.00,0.00,0.00
73,0.030534,0.221374,0.053435,0.000977,-0.005371,1.005615,0.00,0.00,0.00
74,0.091603,-0.175573,0.091603,0.007080,-0.006348,0.992188,0.00,0.00,0.00
75,0.038168,-0.160305,0.114504,0.001709,-0.007812,1.003174,0.00,0.00,0.00
76,0.236641,-0.015267,0.007634,0.002441,-0.003174,1.004639,0.00,0.00,0.00
77,0.114504,-0.152672,0.015267,0.001465,-0.004883,1.000732,0.00,0.00,0.00
78,0.122137,-0.083969,-0.114504,0.000000,-0.005859,1.006592,0.00,0.00,0.00
79,0.053435,-0.236641,-0.015267,0.008545,-0.006836,0.997803,0.00,0.00,0.00
80,-0.053435,-0.015267,-0.007634,-0.004150,-0.003906,1.003418,0.00,0.00,0.00
81,-0.068702,0.068702,-0.129771,0.001221,-0.010498,0.992676,0.00,0.00,0.00
82,-0.007634,-0.137405,0.076336,0.005127,-0.007812,0.998291,0.00,0.00,0.00
83,0.160305,0.183206,0.122137,0.001709,-0.007080,0.998779,0.00,0.00,0.00
84,0.045802,-0.045802,0.038168,-0.000244,-0.007568,0.994873,0.00,0.00,0.00
85,-0.129771,0.053435,-0.030534,0.000977,-0.009277,0.998535,0.00,0.00,0.00
86,-0.175573,0.183206,-0.129771,0.005371,-0.002930,0.994629,0.00,0.00,0.00
87,-0.145038,-0.183206,-0.030534,0.000488,-0.006104,1.003418,0.00,0.00,0.00
88,-0.038168,0.106870,-0.038168,0.005127,-0.010742,0.994873,0.00,0.00,0.00
89,-0.099237,-0.030534,0.083969,0.002197,-0.008057,0.998535,0.00,0.00,0.00
90,0.160305,0.068702,-0.099237,-0.003418,-0.006104,1.004150,0.00,0.00,0.00
91,0.038168,0.083969,0.106870,0.005859,-0.006592,0.997559,0.00,0.00,0.00
92,-0.030534,-0.152672,-0.038168,0.001221,-0.008301,0.998291,0.00,0.00,0.00
93,0.038168,0.099237,0.190840,0.001221,-0.008545,0.999268,0.00,0.00,0.00
94,0.167939,-0.206107,-0.137405,-0.000977,-0.004883,0.994385,0.00,0.00,0.00
95,-0.015267,-0.106870,0.206107,0.000977,-0.013672,0.996826,0.00,0.00,0.00
96,-0.083969,-0.022901,-0.061069,0.008057,-0.009277,0.999023,0.00,0.00,0.00
97,-0.038168,-0.305344,-0.053435,0.007324,-0.005371,1.001465,0.00,0.00,0.00
98,0.145038,-0.061069,-0.030534,0.001221,-0.007568,1.004395,0.00,0.00,0.00
99,-0.129771,-0.083969,0.198473,0.007080,-0.005127,0.993408,0.00,0.00,0.00
100,0.160305,-0.129771,-0.091603,-0.000732,-0.003662,1.005127,0.00,0.00,0.00
101,-0.053435,-0.015267,0.038168,-0.003418,-0.010986,0.994873,0.00,0.00,0.00
102,0.038168,-0.007634,0.106870,0.003662,-0.013428,1.005615,0.00,0.00,0.00
103,0.068702,-0.160305,-0.190840,0.005859,-0.010498,0.995117,0.00,0.00,0.00
104,-0.229008,-0.183206,0.045802,-0.001221,-0.005859,1.007080,0.00,0.00,0.00
105,-0.022901,0.137405,0.007634,0.002441,-0.008545,1.000977,0.00,0.00,0.00
106,-0.122137,0.030534,0.000000,0.005859,-0.007568,0.993408,0.00,0.00,0.00
107,-0.190840,-0.068702,0.061069,0.004883,-0.007812,1.015381,0.00,0.00,0.00
108,-0.007634,0.022901,0.038168,0.006836,-0.004150,0.998291,0.00,0.00,0.00
109,-0.030534,-0.114504,0.022901,0.000244,-0.005615,0.995605,0.00,0.00,0.00
110,-0.068702,0.091603,-0.038168,-0.001709,-0.003662,1.002197,0.00,0.00,0.00
111,-0.129771,-0.091603,0.114504,0.000000,-0.006348,0.992432,0.00,0.00,0.00
112,0.030534,-0.259542,-0.160305,0.000244,-0.007812,0.996094,0.00,0.00,0.00
113,-0.106870,0.129771,-0.061069,0.005127,-0.004883,1.000488,0.00,0.00,0.00
114,0.129771,-0.045802,0.160305,-0.002441,-0.000732,0.994629,0.00,0.00,0.00
115,0.045802,0.000000,-0.091603,-0.001465,-0.004150,1.008057,0.00,0.00,0.00
116,0.038168,-0.030534,-0.007634,0.001221,-0.008301,0.990234,0.00,0.00,0.00
117,-0.083969,-0.045802,0.022901,0.000244,-0.003174,0.996094,0.00,0.00,0.00
118,0.083969,0.122137,0.145038,0.000977,-0.010742,1.005371,0.00,0.00,0.00
119,0.114504,0.038168,-0.022901,0.004883,-0.004150,1.000488,0.00,0.00,0.00
120,0.183206,0.091603,-0.137405,-0.000732,-0.009766,0.998779,0.00,0.00,0.00
121,0.145038,0.137405,-0.030534,0.003906,-0.008057,0.997314,0.00,0.00,0.00
122,-0.030534,-0.068702,-0.030534,0.002930,-0.009766,1.005127,0.00,0.00,0.00
123,0.083969,-0.030534,-0.061069,0.006836,-0.016602,0.993896,0.00,0.00,0.00
124,-0.038168,0.022901,-0.007634,0.008057,-0.006592,1.000000,0.00,0.00,0.00
125,-0.114504,-0.106870,-0.061069,0.001709,-0.008789,0.995605,0.00,0.00,0.00
126,0.183206,0.160305,-0.038168,-0.004639,-0.008057,1.001953,0.00,0.00,0.00
127,-0.091603,-0.083969,-0.160305,0.004883,-0.006836,0.999023,0.00,0.00,0.00
128,0.007634,0.061069,-0.114504,-0.000488,-0.010986,1.008057,0.00,0.00,0.00
129,-0.038168,-0.045802,0.175573,0.000488,-0.006592,0.984619,0.00,0.00,0.00
130,0.099237,0.015267,0.000000,0.002686,-0.009033,0.998779,0.00,0.00,0.00
131,-0.038168,0.183206,-0.030534,0.002441,-0.010986,0.993652,0.00,0.00,0.00
132,0.175573,-0.030534,0.000000,0.000000,-0.007568,1.000000,0.00,0.00,0.00
133,0.083969,0.045802,-0.137405,0.001709,-0.007812,1.008545,0.00,0.00,0.00
134,-0.137405,0.129771,0.022901,-0.001221,-0.006348,0.990723,0.00,0.00,0.00
135,0.022901,-0.099237,-0.022901,0.001709,-0.002930,1.002441,0.00,0.00,0.00
136,0.038168,0.145038,-0.076336,0.000000,-0.010254,0.996094,0.00,0.00,0.00
137,0.015267,-0.015267,-0.038168,0.006104,-0.007568,0.999268,0.00,0.00,0.00
138,0.152672,0.083969,0.129771,0.002930,-0.010986,1.008789,0.00,0.00,0.00
139,-0.083969,0.045802,0.053435,0.006348,-0.005127,0.983398,0.00,0.00,0.00
140,0.221374,0.007634,0.007634,0.002930,-0.005859,1.007812,0.00,0.00,0.00
141,-0.030534,0.106870,0.030534,0.000000,-0.005371,1.000000,0.00,0.00,0.00
142,-0.091603,-0.061069,-0.076336,0.000488,-0.006592,0.990967,0.00,0.00,0.00
143,0.106870,-0.030534,-0.091603,0.000000,-0.005371,1.001221,0.00,0.00,0.00
144,-0.175573,-0.083969,0.083969,0.005859,-0.007080,0.986816,0.00,0.00,0.00
145,-0.099237,-0.167939,-0.114504,-0.001953,-0.005615,1.000977,0.00,0.00,0.00
146,0.000000,0.053435,0.129771,0.008789,-0.010254,0.999268,0.00,0.00,0.00
147,0.076336,-0.061069,-0.129771,0.009277,-0.003418,0.992432,0.00,0.00,0.00
148,0.038168,0.267176,0.076336,0.000977,-0.011475,1.002197,0.00,0.00,0.00
149,0.091603,-0.045802,-0.167939,-0.001221,-0.008301,0.999756,0.00,0.00,0.00
150,-0.122137,0.091603,-0.053435,-0.002930,-0.006348,1.001465,0.00,0.00,0.00
151,0.122137,0.007634,-0.190840,0.001221,-0.006348,1.001953,0.00,0.00,0.00
152,0.076336,-0.145038,-0.038168,0.000977,-0.007812,1.000000,0.00,0.00,0.00
153,0.099237,0.007634,-0.045802,0.001709,-0.013672,0.998291,0.00,0.00,0.00
154,-0.114504,-0.076336,-0.114504,0.001465,-0.012939,1.002441,0.00,0.00,0.00
155,0.068702,-0.061069,0.053435,-0.000244,-0.009521,1.001953,0.00,0.00,0.00
156,0.076336,0.045802,-0.015267,0.004150,-0.005127,1.002197,0.00,0.00,0.00
157,0.129771,-0.076336,-0.061069,0.000000,-0.008789,1.003418,0.00,0.00,0.00
158,0.152672,-0.091603,-0.007634,0.001465,-0.003906,0.995605,0.00,0.00,0.00
159,0.068702,-0.106870,-0.007634,0.004395,-0.007812,0.988770,0.00,0.00,0.00
160,0.076336,-0.022901,0.099237,0.001465,-0.004639,0.999512,0.00,0.00,0.00
161,0.022901,0.053435,-0.007634,0.003174,-0.007812,0.992676,0.00,0.00,0.00
162,-0.198473,-0.145038,0.030534,0.001953,-0.010986,1.000488,0.00,0.00,0.00
163,0.083969,-0.061069,-0.091603,-0.001221,-0.007812,1.004395,0.00,0.00,0.00
164,-0.061069,0.061069,0.038168,0.008301,-0.014648,0.998047,0.00,0.00,0.00
165,0.022901,0.007634,0.000000,-0.000977,-0.005371,1.002197,0.00,0.00,0.00
166,0.083969,0.221374,-0.030534,-0.003418,-0.008789,0.999023,0.00,0.00,0.00
167,-0.076336,-0.061069,0.053435,0.002686,-0.002930,0.993896,0.00,0.00,0.00
168,-0.053435,-0.053435,0.083969,0.003906,-0.011719,1.004639,0.00,0.00,0.00
169,0.061069,-0.045802,-0.015267,0.001709,-0.012207,0.997803,0.00,0.00,0.00
170,0.015267,-0.160305,-0.061069,-0.000488,-0.011475,0.998291,0.00,0.00,0.00
171,0.038168,0.007634,-0.076336,0.005615,-0.008789,1.000244,0.00,0.00,0.00
172,0.068702,-0.038168,-0.099237,0.002197,-0.007568,1.003418,0.00,0.00,0.00
173,0.000000,-0.053435,-0.015267,0.002930,-0.010254,1.008057,0.00,0.00,0.00
174,-0.160305,0.083969,-0.091603,0.000977,-0.011230,0.991455,0.00,0.00,0.00
175,0.007634,-0.007634,0.061069,0.001709,-0.011230,1.008545,0.00,0.00,0.00
176,-0.053435,0.053435,-0.061069,-0.003906,-0.006836,1.009521,0.00,0.00,0.00
177,-0.091603,0.152672,0.030534,0.007080,-0.001465,1.005371,0.00,0.00,0.00
178,-0.007634,0.045802,-0.213740,-0.002930,-0.008301,1.004150,0.00,0.00,0.00
179,0.038168,0.229008,0.106870,0.003906,-0.010254,0.993164,0.00,0.00,0.00
180,0.000000,-0.030534,0.038168,0.000000,-0.007568,0.994385,0.00,0.00,0.00
181,0.076336,0.114504,-0.061069,0.000488,-0.005127,0.996582,0.00,0.00,0.00
182,-0.167939,-0.022901,-0.091603,0.004883,-0.007080,0.990723,0.00,0.00,0.00
183,0.061069,0.152672,-0.129771,-0.002686,-0.008301,0.999023,0.00,0.00,0.00
184,0.022901,0.022901,0.038168,0.006836,-0.008545,1.004639,0.00,0.00,0.00
185,-0.091603,-0.030534,-0.030534,0.000488,-0.007080,1.000488,0.00,0.00,0.00
186,0.030534,0.152672,-0.038168,0.001221,-0.007080,0.999268,0.00,0.00,0.00
187,-0.083969,-0.061069,0.053435,0.002197,-0.008301,0.997314,0.00,0.00,0.00
188,-0.106870,-0.114504,-0.152672,0.001709,-0.008057,1.007080,0.00,0.00,0.00
189,-0.015267,0.015267,0.022901,0.000488,-0.000244,0.997070,0.00,0.00,0.00
190,-0.053435,-0.022901,-0.068702,-0.002441,-0.005859,1.000488,0.00,0.00,0.00
191,-0.022901,-0.038168,0.061069,0.000488,-0.009766,1.002686,0.00,0.00,0.00
192,0.106870,-0.038168,-0.091603,0.001953,-0.010254,0.989258,0.00,0.00,0.00
193,-0.015267,-0.160305,-0.091603,-0.001709,-0.008057,1.006592,0.00,0.00,0.00
194,0.106870,0.145038,-0.045802,0.005371,-0.008545,1.001221,0.00,0.00,0.00
195,-0.068702,-0.137405,-0.053435,-0.002197,-0.006836,1.000000,0.00,0.00,0.00
196,0.145038,0.061069,-0.175573,0.002930,-0.010986,0.995850,0.00,0.00,0.00
197,0.038168,-0.129771,-0.007634,-0.002441,-0.009521,0.993164,0.00,0.00,0.00
198,0.015267,-0.152672,-0.038168,0.000732,-0.008057,1.005859,0.00,0.00,0.00
199,0.061069,0.083969,-0.175573,-0.002686,-0.003662,0.989990,0.00,0.00,0.00
200,-0.061069,-0.122137,-0.015267,-0.000244,-0.005859,1.005859,0.00,0.00,0.00
201,-0.045802,-0.007634,0.114504,0.008545,-0.010010,1.002197,0.00,0.00,0.00
202,0.114504,-0.137405,-0.083969,0.005615,0.000000,0.993408,0.00,0.00,0.00
203,0.099237,0.022901,-0.106870,-0.000244,-0.011230,1.007080,0.00,0.00,0.00
204,0.038168,-0.038168,-0.160305,0.005371,-0.006836,0.999268,0.00,0.00,0.00
205,0.045802,-0.091603,0.061069,-0.002686,-0.005371,0.997803,0.00,0.00,0.00
206,-0.038168,0.061069,-0.068702,0.003662,-0.004150,0.991699,0.00,0.00,0.00
207,0.129771,-0.083969,-0.083969,0.002197,-0.006348,1.001709,0.00,0.00,0.00
208,-0.061069,-0.213740,-0.137405,-0.000977,-0.008301,0.999756,0.00,0.00,0.00
209,0.160305,-0.083969,0.038168,0.000000,-0.003418,0.992676,0.00,0.00,0.00
210,0.167939,-0.190840,0.015267,0.000977,-0.007568,1.003418,0.00,0.00,0.00
211,-0.083969,0.106870,0.091603,0.001221,-0.009277,1.004883,0.00,0.00,0.00
212,-0.068702,0.007634,-0.206107,-0.000732,-0.010254,1.005859,0.00,0.00,0.00
213,0.183206,-0.206107,-0.022901,-0.004150,-0.009521,1.005859,0.00,0.00,0.00
214,-0.038168,0.122137,-0.145038,0.009766,-0.006836,0.991699,0.00,0.00,0.00
215,-0.061069,-0.091603,-0.030534,-0.004150,-0.008789,1.000488,0.00,0.00,0.00
216,-0.114504,0.106870,-0.175573,0.001465,-0.007812,1.003906,0.00,0.00,0.00
217,0.030534,-0.091603,0.175573,0.000000,-0.009033,0.999512,0.00,0.00,0.00
218,0.114504,0.061069,0.038168,-0.002197,-0.008057,1.004639,0.00,0.00,0.00
219,-0.022901,0.061069,0.030534,0.001953,-0.009277,1.000000,0.00,0.00,0.00
220,-0.030534,-0.007634,-0.053435,0.000000,-0.008789,0.987305,0.00,0.00,0.00
221,0.160305,0.122137,-0.068702,0.001465,-0.006104,1.005371,0.00,0.00,0.00
222,0.038168,0.053435,0.183206,0.000000,-0.007812,0.994873,0.00,0.00,0.00
223,0.022901,-0.030534,0.099237,-0.001953,0.001953,1.005127,0.00,0.00,0.00
224,-0.114504,0.022901,-0.091603,0.004639,-0.009766,1.001709,0.00,0.00,0.00
225,0.007634,-0.175573,0.007634,0.001465,-0.007568,0.998291,0.00,0.00,0.00
226,0.068702,-0.030534,0.114504,-0.003662,-0.010010,1.011475,0.00,0.00,0.00
227,0.137405,0.061069,0.007634,0.003662,-0.003662,0.992676,0.00,0.00,0.00
228,0.282443,0.000000,-0.053435,0.003418,-0.005859,0.990967,0.00,0.00,0.00
229,-0.038168,0.061069,-0.015267,0.003906,-0.013672,1.001221,0.00,0.00,0.00
230,0.152672,-0.015267,-0.015267,-0.001953,-0.007812,0.994629,0.00,0.00,0.00
231,-0.198473,-0.015267,0.099237,0.005859,-0.009033,1.002441,0.00,0.00,0.00
232,-0.145038,-0.068702,-0.076336,0.004883,-0.010986,0.993408,0.00,0.00,0.00
233,0.236641,-0.129771,-0.068702,0.001709,-0.005859,1.003662,0.00,0.00,0.00
234,0.015267,-0.145038,0.129771,0.000000,-0.009277,0.998779,0.00,0.00,0.00
235,-0.145038,0.022901,0.068702,0.005127,-0.008301,0.998047,0.00,0.00,0.00
236,-0.061069,-0.091603,-0.068702,-0.003906,-0.003906,1.000977,0.00,0.00,0.00
237,0.007634,0.114504,0.053435,0.001465,-0.009766,0.988770,0.00,0.00,0.00
238,-0.091603,-0.061069,-0.221374,-0.002197,-0.004395,1.004883,0.00,0.00,0.00
239,0.068702,0.213740,0.160305,0.002686,-0.004639,0.992188,0.00,0.00,0.00
240,0.022901,-0.068702,0.030534,0.002197,-0.010742,0.999512,0.00,0.00,0.00
241,0.190840,-0.030534,-0.175573,-0.005615,-0.003418,1.010742,0.00,0.00,0.00
242,0.022901,0.038168,-0.091603,0.003418,-0.010010,0.997070,0.00,0.00,0.00
243,-0.083969,-0.091603,0.091603,0.003906,-0.005371,0.998047,0.00,0.00,0.00
244,0.045802,-0.007634,0.061069,-0.003906,-0.010010,0.999023,0.00,0.00,0.00
245,0.000000,0.015267,0.053435,0.001465,-0.006104,0.994873,0.00,0.00,0.00
246,0.000000,-0.129771,0.076336,0.003418,-0.006592,1.003906,0.00,0.00,0.00
247,0.007634,0.007634,-0.038168,0.003418,-0.005127,0.994385,0.00,0.00,0.00
248,0.061069,-0.175573,-0.022901,0.000488,-0.008789,1.006836,0.00,0.00,0.00
249,-0.022901,0.053435,0.007634,0.002930,-0.012695,0.998291,0.00,0.00,0.00
250,-0.007634,-0.183206,-0.198473,0.003418,-0.006592,0.991455,0.00,0.00,0.00
251,0.122137,-0.251908,-0.038168,0.003174,-0.008057,1.002930,0.00,0.00,0.00
252,-0.061069,-0.045802,-0.267176,0.007568,-0.008057,0.998779,0.00,0.00,0.00
253,0.007634,-0.267176,-0.015267,-0.000977,-0.009033,1.008545,0.00,0.00,0.00
254,-0.038168,0.114504,-0.129771,0.000000,-0.005859,0.992676,0.00,0.00,0.00
255,0.091603,-0.175573,-0.190840,0.003906,-0.005127,0.996826,0.00,0.00,0.00
256,0.122137,-0.099237,0.061069,-0.000488,-0.003418,0.998291,0.00,0.00,0.00
257,0.022901,0.038168,0.076336,0.008057,-0.006836,1.009766,0.00,0.00,0.00
258,-0.015267,-0.366412,0.007634,0.003174,-0.008301,1.000977,0.00,0.00,0.00
259,0.160305,-0.076336,-0.068702,0.006348,-0.008057,0.998047,0.00,0.00,0.00
260,-0.053435,-0.022901,-0.015267,-0.000732,-0.005615,1.003418,0.00,0.00,0.00
261,-0.129771,-0.099237,-0.183206,-0.001221,-0.011230,1.013428,0.00,0.00,0.00
262,0.137405,0.068702,0.045802,0.006836,-0.017090,1.000488,0.00,0.00,0.00
263,-0.053435,-0.022901,-0.030534,0.001221,-0.004639,1.006836,0.00,0.00,0.00
264,0.061069,0.022901,0.045802,0.001221,-0.006348,0.988770,0.00,0.00,0.00
265,-0.053435,-0.229008,0.091603,-0.002686,-0.008789,0.995605,0.00,0.00,0.00
266,0.091603,-0.083969,-0.053435,0.004883,-0.003906,0.993896,0.00,0.00,0.00
267,0.068702,-0.091603,-0.106870,0.005127,-0.008057,0.998779,0.00,0.00,0.00
268,0.145038,-0.053435,-0.175573,-0.000488,-0.006592,1.009277,0.00,0.00,0.00
269,0.137405,0.160305,-0.061069,0.003906,-0.010498,1.005859,0.00,0.00,0.00
270,0.030534,-0.320611,-0.190840,-0.001953,-0.009277,0.992188,0.00,0.00,0.00
271,-0.061069,-0.083969,-0.015267,0.000488,-0.005127,1.002441,0.00,0.00,0.00
272,-0.045802,0.030534,-0.022901,-0.002441,-0.008301,1.000244,0.00,0.00,0.00
273,-0.038168,-0.198473,-0.038168,0.000977,-0.008057,0.993652,0.00,0.00,0.00
274,0.129771,0.137405,0.022901,0.000977,-0.014160,1.006348,0.00,0.00,0.00
275,-0.045802,-0.259542,-0.007634,-0.002930,-0.006104,0.994873,0.00,0.00,0.00
276,-0.229008,-0.167939,-0.137405,-0.004150,-0.009277,0.993164,0.00,0.00,0.00
277,-0.022901,0.053435,-0.099237,0.003906,-0.006592,0.989502,0.00,0.00,0.00
278,-0.007634,-0.305344,-0.267176,0.004395,-0.012207,0.993652,0.00,0.00,0.00
279,0.114504,0.145038,-0.229008,0.001221,-0.011719,1.000488,0.00,0.00,0.00
280,-0.106870,-0.091603,0.076336,0.002441,-0.011475,1.004395,0.00,0.00,0.00
281,0.137405,0.015267,0.030534,0.002441,-0.008301,1.003418,0.00,0.00,0.00
282,0.145038,0.022901,-0.007634,0.002441,-0.005371,1.001465,0.00,0.00,0.00
283,-0.015267,-0.007634,-0.083969,0.005859,0.000488,1.000244,0.00,0.00,0.00
284,0.045802,0.045802,-0.091603,0.001465,-0.007080,0.997070,0.00,0.00,0.00
285,-0.129771,-0.175573,0.007634,0.007324,-0.009277,0.987549,0.00,0.00,0.00
286,-0.045802,0.030534,-0.137405,-0.003662,-0.005127,1.004639,0.00,0.00,0.00
287,-0.145038,0.167939,-0.122137,0.007568,-0.010254,0.986328,0.00,0.00,0.00
288,0.030534,-0.053435,0.007634,-0.007812,-0.002441,1.002197,0.00,0.00,0.00
289,-0.053435,0.221374,-0.099237,-0.002197,-0.005615,0.998291,0.00,0.00,0.00
290,-0.122137,-0.022901,-0.022901,0.008789,-0.004395,1.002441,0.00,0.00,0.00
291,-0.015267,0.076336,0.000000,0.003174,-0.006348,1.009521,0.00,0.00,0.00
292,0.030534,0.145038,0.083969,0.005127,-0.011230,0.988281,0.00,0.00,0.00
293,-0.175573,-0.221374,-0.022901,-0.000244,-0.008057,0.994385,0.00,0.00,0.00
294,0.152672,0.045802,-0.099237,0.006104,-0.013672,1.002930,0.00,0.00,0.00
295,0.068702,-0.129771,-0.045802,0.001953,-0.008545,1.002197,0.00,0.00,0.00
296,0.145038,0.053435,-0.129771,-0.000244,-0.004395,0.996338,0.00,0.00,0.00
297,-0.015267,0.190840,-0.114504,0.004395,-0.006592,0.988037,0.00,0.00,0.00
298,-0.038168,-0.198473,-0.007634,0.002686,-0.004639,0.999268,0.00,0.00,0.00
299,0.160305,0.106870,-0.129771,0.002930,-0.008789,1.002930,0.00,0.00,0.00
300,-0.167939,-0.015267,-0.106870,0.006836,-0.006348,1.000000,0.00,0.00,0.00
301,0.007634,0.053435,0.206107,-0.001953,-0.006104,1.005371,0.00,0.00,0.00
302,-0.091603,0.076336,-0.312977,0.004150,-0.008301,0.995605,0.00,0.00,0.00
303,-0.114504,-0.137405,-0.038168,0.005127,-0.003174,0.998047,0.00,0.00,0.00
304,0.007634,0.076336,-0.114504,-0.003906,-0.010254,0.998047,0.00,0.00,0.00
305,-0.076336,-0.122137,-0.160305,-0.000244,-0.006592,0.990479,0.00,0.00,0.00
306,0.076336,0.030534,-0.007634,-0.000732,-0.008789,1.006348,0.00,0.00,0.00
307,0.076336,0.068702,-0.007634,-0.001221,-0.008545,0.994629,0.00,0.00,0.00
308,0.007634,-0.259542,-0.206107,0.002930,-0.005859,1.007080,0.00,0.00,0.00
309,0.053435,0.267176,-0.091603,-0.003174,-0.007812,1.000000,0.00,0.00,0.00
310,-0.091603,0.045802,-0.091603,0.003662,-0.012451,0.992432,0.00,0.00,0.00
311,0.038168,-0.053435,-0.129771,-0.004639,-0.005859,1.004150,0.00,0.00,0.00
312,-0.007634,0.244275,-0.053435,0.001709,-0.014160,0.994385,0.00,0.00,0.00
313,0.022901,-0.099237,0.000000,0.001953,-0.003662,1.004883,0.00,0.00,0.00
314,0.022901,0.374046,0.106870,-0.005859,-0.009277,0.998047,0.00,0.00,0.00
315,-0.152672,0.022901,-0.045802,0.001709,-0.006348,0.990723,0.00,0.00,0.00
316,0.076336,-0.114504,0.099237,0.000977,-0.004883,1.002686,0.00,0.00,0.00
317,0.030534,0.038168,0.030534,0.001953,-0.010010,0.990234,0.00,0.00,0.00
318,0.106870,-0.068702,-0.076336,-0.001221,-0.007568,1.003174,0.00,0.00,0.00
319,0.015267,0.183206,-0.122137,0.003418,-0.011475,1.004395,0.00,0.00,0.00
320,-0.175573,-0.145038,0.030534,0.004150,-0.009277,0.992188,0.00,0.00,0.00
321,-0.129771,-0.007634,0.007634,0.002686,-0.009277,1.006836,0.00,0.00,0.00
322,0.022901,0.015267,0.038168,0.001709,-0.011719,0.992432,0.00,0.00,0.00
323,-0.129771,-0.106870,-0.007634,0.003906,-0.004883,1.004395,0.00,0.00,0.00
324,0.167939,0.061069,-0.068702,0.004883,-0.007568,1.005371,0.00,0.00,0.00
325,-0.114504,-0.045802,0.022901,0.005127,-0.004883,0.996094,0.00,0.00,0.00
326,0.030534,-0.114504,-0.068702,-0.000732,-0.011963,0.993652,0.00,0.00,0.00
327,0.160305,0.000000,-0.038168,-0.002441,-0.012451,0.993164,0.00,0.00,0.00
328,-0.106870,-0.236641,-0.099237,0.002441,-0.008301,0.995605,0.00,0.00,0.00
329,0.152672,-0.030534,-0.213740,-0.001709,-0.008301,1.008789,0.00,0.00,0.00
330,0.076336,0.007634,-0.076336,-0.001465,-0.008301,0.994873,0.00,0.00,0.00
331,-0.114504,-0.137405,0.251908,-0.004150,-0.005615,0.993164,0.00,0.00,0.00
332,0.190840,0.091603,-0.091603,-0.000488,-0.012207,0.998291,0.00,0.00,0.00
333,-0.114504,-0.145038,0.122137,-0.004883,-0.002930,0.998291,0.00,0.00,0.00
334,-0.106870,-0.061069,-0.038168,-0.000488,-0.001465,0.999023,0.00,0.00,0.00
335,0.114504,-0.083969,0.007634,0.005127,-0.004883,0.993164,0.00,0.00,0.00
336,0.091603,-0.221374,-0.122137,-0.004639,-0.008789,1.006836,0.00,0.00,0.00
337,0.114504,0.068702,0.007634,0.001953,-0.008301,0.991943,0.00,0.00,0.00
338,-0.076336,-0.083969,0.114504,-0.000977,-0.003418,0.996094,0.00,0.00,0.00
339,0.290076,-0.030534,-0.152672,-0.001709,-0.011230,1.016357,0.00,0.00,0.00
340,-0.030534,0.007634,-0.022901,0.007568,-0.003906,0.983154,0.00,0.00,0.00
341,-0.190840,0.022901,-0.015267,0.003174,-0.007812,1.005127,0.00,0.00,0.00
342,0.267176,0.229008,-0.099237,0.000977,-0.010742,1.007568,0.00,0.00,0.00
343,0.061069,0.068702,0.007634,0.004639,-0.010254,0.996338,0.00,0.00,0.00
344,-0.030534,-0.206107,-0.022901,-0.001465,-0.010254,1.005859,0.00,0.00,0.00
345,-0.076336,0.068702,-0.167939,0.006592,-0.005615,1.007324,0.00,0.00,0.00
346,0.053435,-0.068702,-0.083969,0.004639,-0.007080,1.006348,0.00,0.00,0.00
347,0.114504,0.053435,-0.045802,0.003662,-0.010010,1.005127,0.00,0.00,0.00
348,-0.129771,-0.114504,-0.083969,0.000488,-0.007812,0.997803,0.00,0.00,0.00
349,-0.030534,-0.015267,-0.045802,0.004395,-0.006104,1.008057,0.00,0.00,0.00
350,-0.030534,0.114504,0.106870,0.003174,-0.007568,0.984375,0.00,0.00,0.00
351,0.053435,-0.129771,-0.099237,-0.004150,-0.007080,1.004639,0.00,0.00,0.00
352,-0.053435,0.038168,-0.053435,0.002930,-0.012939,1.005371,0.00,0.00,0.00
353,-0.137405,-0.022901,0.045802,0.005127,-0.007812,0.989014,0.00,0.00,0.00
354,0.106870,-0.190840,-0.106870,-0.000977,-0.002686,1.004150,0.00,0.00,0.00
355,0.106870,-0.068702,-0.099237,0.003418,-0.011475,0.994141,0.00,0.00,0.00
356,-0.106870,-0.221374,0.083969,-0.004150,-0.005127,1.005859,0.00,0.00,0.00
357,-0.167939,0.290076,0.015267,0.004883,-0.008789,0.991943,0.00,0.00,0.00
358,-0.152672,-0.068702,0.045802,0.001221,-0.002930,0.994385,0.00,0.00,0.00
359,0.022901,0.007634,-0.099237,0.003418,-0.008301,1.001221,0.00,0.00,0.00
360,0.022901,0.305344,-0.030534,0.004639,-0.009277,1.003906,0.00,0.00,0.00
361,-0.160305,-0.152672,0.000000,0.003418,-0.006592,1.000488,0.00,0.00,0.00
362,0.160305,-0.022901,-0.015267,-0.001221,-0.010254,0.998779,0.00,0.00,0.00
363,0.129771,-0.129771,-0.053435,0.002930,-0.008301,0.994873,0.00,0.00,0.00
364,0.022901,-0.053435,-0.022901,0.000732,-0.004883,1.001709,0.00,0.00,0.00
365,-0.114504,-0.007634,0.022901,0.004639,-0.011963,0.986572,0.00,0.00,0.00
366,-0.030534,-0.122137,-0.152672,0.006104,-0.010742,0.996826,0.00,0.00,0.00
367,0.099237,0.045802,0.000000,0.000977,-0.011963,0.992188,0.00,0.00,0.00
368,-0.091603,-0.175573,-0.076336,-0.004639,-0.006104,0.993408,0.00,0.00,0.00
369,0.015267,0.045802,0.083969,0.002441,-0.005615,1.004639,0.00,0.00,0.00
370,-0.022901,-0.053435,0.038168,0.000244,-0.010254,0.994385,0.00,0.00,0.00
371,-0.259542,-0.206107,-0.022901,0.003418,-0.004150,0.996826,0.00,0.00,0.00
372,0.099237,0.030534,-0.122137,0.000000,-0.011719,1.005615,0.00,0.00,0.00
373,-0.122137,-0.122137,0.030534,0.003174,-0.002686,0.985352,0.00,0.00,0.00
374,-0.015267,-0.137405,0.038168,-0.001953,-0.001953,0.991455,0.00,0.00,0.00
375,0.106870,0.129771,-0.038168,0.006592,-0.011963,0.989746,0.00,0.00,0.00
376,-0.167939,-0.122137,0.030534,0.001953,-0.010254,0.996582,0.00,0.00,0.00
377,0.106870,0.190840,0.000000,0.001953,-0.002686,1.000732,0.00,0.00,0.00
378,-0.053435,-0.061069,0.022901,0.003662,-0.009033,0.998047,0.00,0.00,0.00
379,0.045802,0.022901,-0.076336,0.006836,-0.005127,1.003418,0.00,0.00,0.00
380,0.106870,0.137405,-0.022901,0.008057,-0.008789,1.000000,0.00,0.00,0.00
381,-0.114504,-0.145038,-0.152672,0.000488,-0.010254,1.000732,0.00,0.00,0.00
382,0.160305,0.160305,-0.213740,0.002930,-0.005127,1.006348,0.00,0.00,0.00
383,-0.091603,0.114504,-0.030534,-0.000732,-0.010986,0.991699,0.00,0.00,0.00
384,-0.038168,-0.045802,-0.083969,0.006592,-0.007080,1.003174,0.00,0.00,0.00
385,0.061069,0.106870,0.045802,0.007568,-0.005859,0.997314,0.00,0.00,0.00
386,-0.129771,-0.137405,-0.190840,0.003906,-0.003418,0.989746,0.00,0.00,0.00
387,0.099237,0.007634,0.007634,-0.004395,-0.005371,1.006348,0.00,0.00,0.00
388,-0.015267,0.122137,-0.015267,0.010010,-0.009521,0.990479,0.00,0.00,0.00
389,0.022901,-0.183206,-0.045802,0.000244,-0.011475,1.002441,0.00,0.00,0.00
390,-0.045802,0.152672,0.015267,0.003906,-0.012451,1.004150,0.00,0.00,0.00
391,-0.122137,-0.145038,-0.122137,-0.005371,-0.005371,1.010986,0.00,0.00,0.00
392,-0.083969,0.137405,0.000000,0.000000,-0.010254,0.992188,0.00,0.00,0.00
393,-0.106870,0.061069,-0.076336,0.008545,-0.010986,0.992432,0.00,0.00,0.00
394,-0.152672,-0.015267,-0.091603,-0.006104,-0.007568,1.006836,0.00,0.00,0.00
395,0.122137,0.061069,-0.091603,0.002197,-0.010742,1.009766,0.00,0.00,0.00
396,-0.206107,-0.137405,-0.038168,-0.003906,-0.007080,1.003906,0.00,0.00,0.00
397,0.068702,-0.145038,0.030534,0.000244,-0.004883,0.999023,0.00,0.00,0.00
398,-0.106870,0.076336,0.076336,0.006836,-0.004883,0.992920,0.00,0.00,0.00
399,-0.091603,-0.244275,-0.022901,-0.000488,0.002197,1.001465,0.00,0.00,0.00
400,0.091603,0.000000,-0.053435,0.004639,-0.010498,1.000977,0.00,0.00,0.00
401,-0.106870,0.000000,0.022901,0.005371,-0.010986,0.986572,0.00,0.00,0.00
402,-0.083969,-0.083969,-0.061069,0.001465,-0.005859,1.006836,0.00,0.00,0.00
403,0.061069,-0.045802,0.038168,0.008545,-0.007812,1.001953,0.00,0.00,0.00
404,-0.030534,-0.305344,-0.221374,0.003662,-0.009033,1.000977,0.00,0.00,0.00
405,0.038168,-0.076336,-0.007634,-0.007568,-0.010986,0.998779,0.00,0.00,0.00
406,-0.030534,0.114504,-0.007634,0.001709,-0.010010,0.994629,0.00,0.00,0.00
407,0.106870,0.068702,0.038168,-0.000244,-0.009766,1.000732,0.00,0.00,0.00
408,-0.030534,-0.129771,-0.152672,0.007568,-0.008301,0.990723,0.00,0.00,0.00
409,0.053435,-0.374046,-0.129771,-0.001953,-0.002197,1.011963,0.00,0.00,0.00
410,-0.030534,0.160305,0.038168,0.006348,-0.009521,0.998535,0.00,0.00,0.00
411,-0.083969,-0.015267,0.015267,-0.003418,-0.007568,0.992188,0.00,0.00,0.00
412,-0.137405,-0.015267,-0.076336,-0.002930,-0.013184,1.002197,0.00,0.00,0.00
413,0.068702,0.076336,-0.068702,0.005615,-0.008057,0.989502,0.00,0.00,0.00
414,-0.091603,-0.229008,-0.053435,0.002930,-0.010498,0.998047,0.00,0.00,0.00
415,-0.045802,0.229008,-0.007634,-0.002686,-0.012451,1.001221,0.00,0.00,0.00
416,0.030534,-0.038168,0.145038,0.000977,-0.008545,0.990479,0.00,0.00,0.00
417,0.175573,0.083969,-0.129771,-0.003906,-0.014404,1.004150,0.00,0.00,0.00
418,-0.083969,0.068702,-0.160305,0.008545,-0.007080,0.996826,0.00,0.00,0.00
419,-0.175573,-0.038168,-0.053435,0.000977,-0.004883,1.005127,0.00,0.00,0.00
420,0.061069,0.259542,0.068702,-0.007324,-0.010986,1.007324,0.00,0.00,0.00
421,-0.030534,-0.083969,0.083969,0.000488,-0.007080,1.005127,0.00,0.00,0.00
422,0.114504,-0.091603,0.030534,-0.002930,-0.011230,0.998779,0.00,0.00,0.00
423,0.053435,-0.015267,-0.152672,0.010498,-0.008545,0.983398,0.00,0.00,0.00
424,-0.152672,-0.190840,-0.038168,0.005127,-0.009521,1.001953,0.00,0.00,0.00
425,0.061069,-0.091603,0.000000,0.009521,-0.008545,0.997559,0.00,0.00,0.00
426,-0.358779,-0.244275,0.045802,0.005127,-0.004150,0.990723,0.00,0.00,0.00
427,0.145038,0.122137,0.000000,-0.000244,-0.007080,1.000488,0.00,0.00,0.00
428,0.152672,0.015267,-0.045802,0.007080,-0.004883,0.991943,0.00,0.00,0.00
429,-0.076336,-0.122137,0.083969,0.000977,-0.010498,1.002197,0.00,0.00,0.00
430,0.198473,-0.045802,-0.068702,0.009521,-0.008545,0.996582,0.00,0.00,0.00
431,-0.068702,0.030534,0.022901,0.005371,-0.007080,0.995850,0.00,0.00,0.00
432,-0.038168,-0.236641,0.114504,-0.000244,-0.008057,1.001465,0.00,0.00,0.00
433,0.022901,0.091603,0.068702,0.009277,-0.010254,0.984863,0.00,0.00,0.00
434,-0.061069,-0.061069,0.083969,-0.005859,-0.010498,1.003174,0.00,0.00,0.00
435,0.076336,0.137405,-0.099237,0.004150,-0.008057,0.992920,0.00,0.00,0.00
436,-0.022901,0.053435,-0.045802,0.002930,-0.009277,0.992188,0.00,0.00,0.00
437,0.068702,-0.038168,-0.076336,0.000977,-0.008545,1.006592,0.00,0.00,0.00
438,0.045802,0.206107,-0.114504,0.005127,-0.012451,0.995605,0.00,0.00,0.00
439,0.068702,-0.076336,0.068702,-0.001709,-0.008301,0.988037,0.00,0.00,0.00
440,0.114504,-0.015267,-0.083969,0.004395,-0.008057,1.008301,0.00,0.00,0.00
441,-0.091603,-0.076336,-0.045802,0.003174,-0.004883,0.993896,0.00,0.00,0.00
442,0.053435,0.068702,-0.137405,0.006836,-0.008789,0.999756,0.00,0.00,0.00
443,-0.015267,0.137405,-0.068702,-0.000488,-0.010254,0.993408,0.00,0.00,0.00
444,0.000000,-0.221374,0.000000,0.003906,-0.010254,0.999023,0.00,0.00,0.00
445,-0.061069,-0.099237,0.000000,-0.000732,-0.009277,1.006592,0.00,0.00,0.00
446,-0.053435,-0.106870,-0.076336,-0.001953,-0.008545,0.989746,0.00,0.00,0.00
447,-0.030534,-0.167939,0.145038,-0.000244,-0.004150,0.996094,0.00,0.00,0.00
448,-0.206107,0.030534,-0.274809,0.002930,-0.010254,1.003662,0.00,0.00,0.00
449,-0.106870,-0.053435,-0.152672,0.002441,-0.007080,0.995117,0.00,0.00,0.00
450,0.114504,0.229008,0.068702,-0.002441,-0.014893,0.991699,0.00,0.00,0.00
451,-0.152672,0.061069,0.229008,0.003418,-0.013428,0.989990,0.00,0.00,0.00
452,0.137405,-0.061069,-0.152672,-0.001953,-0.005859,1.008789,0.00,0.00,0.00
453,0.083969,0.183206,0.122137,0.003418,-0.010010,1.001221,0.00,0.00,0.00
454,0.068702,-0.053435,-0.061069,0.002686,-0.012939,1.001953,0.00,0.00,0.00
455,0.038168,-0.038168,-0.045802,0.004395,-0.008789,1.003418,0.00,0.00,0.00
456,0.145038,0.137405,0.045802,0.000977,-0.003418,0.996826,0.00,0.00,0.00
457,-0.129771,-0.122137,-0.160305,0.003174,-0.012207,0.999023,0.00,0.00,0.00
458,0.083969,0.083969,0.106870,0.005127,-0.010010,1.004883,0.00,0.00,0.00
459,-0.061069,-0.137405,-0.053435,0.003662,-0.007324,1.001709,0.00,0.00,0.00
460,0.190840,-0.106870,-0.122137,0.003418,-0.009277,0.994629,0.00,0.00,0.00
461,0.053435,0.106870,0.137405,0.004883,-0.011963,0.991211,0.00,0.00,0.00
462,-0.038168,-0.175573,-0.038168,-0.005371,-0.003174,1.001953,0.00,0.00,0.00
463,-0.022901,-0.152672,-0.083969,0.002197,-0.009521,0.999756,0.00,0.00,0.00
464,0.015267,-0.030534,-0.122137,-0.001709,-0.011963,0.987549,0.00,0.00,0.00
465,0.076336,-0.152672,0.145038,-0.001953,-0.013428,1.001465,0.00,0.00,0.00
466,0.122137,0.259542,-0.122137,0.001465,-0.007812,0.987549,0.00,0.00,0.00
467,0.015267,-0.114504,-0.137405,0.006104,-0.006104,0.998779,0.00,0.00,0.00
468,-0.137405,-0.038168,-0.038168,0.004639,-0.001709,1.003174,0.00,0.00,0.00
469,-0.068702,-0.282443,-0.076336,0.004395,-0.009277,1.004395,0.00,0.00,0.00
470,-0.022901,0.122137,-0.122137,-0.005127,-0.009277,1.004150,0.00,0.00,0.00
471,-0.099237,-0.030534,0.068702,0.008057,-0.010010,0.990723,0.00,0.00,0.00
472,0.175573,-0.068702,0.091603,0.000732,-0.008057,1.005127,0.00,0.00,0.00
473,0.007634,0.183206,-0.083969,0.008057,-0.011475,1.009766,0.00,0.00,0.00
474,0.083969,-0.167939,-0.076336,0.001465,-0.005615,0.994629,0.00,0.00,0.00
475,-0.122137,-0.175573,-0.137405,0.000244,-0.004639,1.013184,0.00,0.00,0.00
476,0.061069,0.236641,-0.083969,0.001709,-0.012939,0.995605,0.00,0.00,0.00
477,-0.053435,-0.152672,-0.160305,0.003418,-0.005615,1.000000,0.00,0.00,0.00
478,0.038168,0.244275,-0.053435,0.005371,-0.012939,1.000977,0.00,0.00,0.00
479,-0.030534,-0.099237,-0.083969,0.004639,-0.005371,1.006348,0.00,0.00,0.00
480,0.030534,-0.030534,-0.076336,-0.003418,-0.010010,0.994629,0.00,0.00,0.00
481,-0.122137,0.106870,-0.274809,0.010742,-0.008789,0.989990,0.00,0.00,0.00
482,0.045802,-0.045802,-0.099237,-0.006348,-0.005859,0.994141,0.00,0.00,0.00
483,0.229008,0.145038,0.007634,0.000732,-0.004150,0.999023,0.00,0.00,0.00
484,-0.061069,-0.030534,0.007634,-0.002441,-0.004639,0.998779,0.00,0.00,0.00
485,0.106870,-0.061069,-0.122137,0.003662,-0.010010,1.005859,0.00,0.00,0.00
486,-0.015267,0.145038,-0.091603,0.003418,-0.008057,0.996582,0.00,0.00,0.00
487,0.007634,-0.190840,0.053435,0.004150,-0.005127,0.990967,0.00,0.00,0.00
488,0.038168,0.160305,-0.167939,-0.000977,-0.007812,1.004150,0.00,0.00,0.00
489,-0.160305,-0.183206,-0.290076,-0.000488,-0.004883,0.997314,0.00,0.00,0.00
490,0.022901,0.000000,0.106870,-0.006592,-0.010498,1.005371,0.00,0.00,0.00
491,0.015267,-0.022901,-0.145038,0.006348,-0.009521,1.002197,0.00,0.00,0.00
492,0.068702,-0.068702,-0.083969,0.001221,-0.013916,0.993896,0.00,0.00,0.00
493,0.083969,-0.007634,-0.167939,0.010254,-0.010498,0.984375,0.00,0.00,0.00
494,-0.053435,-0.129771,-0.259542,0.002930,-0.010254,0.993164,0.00,0.00,0.00
495,-0.099237,-0.045802,-0.038168,-0.001221,-0.004395,1.019531,0.00,0.00,0.00
496,-0.137405,0.000000,0.015267,0.007324,-0.009521,0.995117,0.00,0.00,0.00
497,0.000000,-0.068702,0.061069,0.000488,-0.005615,1.003662,0.00,0.00,0.00
498,0.045802,0.137405,0.007634,-0.001465,-0.005859,1.005371,0.00,0.00,0.00
499,-0.106870,-0.022901,0.076336,0.004395,-0.010254,0.993896,0.00,0.00,0.00
500,-0.145038,-0.015267,0.106870,0.000977,-0.001465,0.999512,0.00,0.00,0.00
501,-0.083969,-0.045802,-0.061069,0.003418,-0.009033,0.991211,0.00,0.00,0.00
502,0.160305,0.030534,-0.038168,0.000000,-0.006836,1.002930,0.00,0.00,0.00
503,0.091603,0.129771,-0.038168,0.004395,-0.010742,1.000732,0.00,0.00,0.00
504,0.030534,-0.152672,-0.015267,0.000488,-0.009766,0.991211,0.00,0.00,0.00
505,-0.076336,0.007634,0.045802,0.002197,-0.007568,1.003906,0.00,0.00,0.00
506,0.091603,-0.129771,-0.137405,0.000977,-0.015625,0.986328,0.00,0.00,0.00
507,-0.007634,-0.251908,-0.007634,0.006348,-0.011963,1.011719,0.00,0.00,0.00
508,0.267176,0.236641,0.030534,0.001709,-0.010010,0.996582,0.00,0.00,0.00
509,-0.083969,-0.137405,-0.137405,0.003174,-0.007812,1.001221,0.00,0.00,0.00
510,0.213740,0.259542,-0.030534,-0.002441,-0.010010,1.002197,0.00,0.00,0.00
511,-0.175573,-0.068702,0.122137,-0.001221,-0.009766,0.989990,0.00,0.00,0.00
512,-0.007634,-0.175573,-0.068702,0.001709,-0.010254,1.002197,0.00,0.00,0.00
513,0.145038,0.068702,0.000000,-0.000732,-0.008057,0.991455,0.00,0.00,0.00
514,-0.175573,-0.091603,-0.167939,0.001465,-0.015137,0.995605,0.00,0.00,0.00
515,-0.038168,-0.038168,-0.160305,0.004150,-0.005615,1.005859,0.00,0.00,0.00
516,-0.053435,0.083969,-0.122137,0.006348,-0.007080,0.994141,0.00,0.00,0.00
517,-0.305344,-0.015267,-0.106870,-0.000977,-0.007568,1.003662,0.00,0.00,0.00
518,0.167939,0.229008,-0.015267,0.001221,-0.011230,1.002197,0.00,0.00,0.00
519,-0.114504,0.007634,-0.076336,0.001709,-0.000244,1.006836,0.00,0.00,0.00
520,0.114504,0.015267,-0.015267,0.000732,-0.006836,1.001465,0.00,0.00,0.00
521,0.091603,-0.068702,0.015267,0.004883,-0.009033,0.992676,0.00,0.00,0.00
522,-0.160305,-0.045802,-0.183206,-0.000244,-0.007324,1.000244,0.00,0.00,0.00
523,0.030534,0.290076,-0.038168,0.006348,-0.010254,0.998047,0.00,0.00,0.00
524,-0.114504,-0.091603,-0.068702,0.006836,-0.009521,0.987793,0.00,0.00,0.00
525,0.106870,-0.145038,-0.083969,-0.005615,-0.005859,0.996826,0.00,0.00,0.00
526,0.038168,0.183206,-0.045802,-0.001465,-0.015625,0.995117,0.00,0.00,0.00
527,-0.030534,-0.175573,0.000000,0.000000,-0.006348,1.000732,0.00,0.00,0.00
528,0.061069,0.244275,-0.015267,0.002930,-0.006104,1.005127,0.00,0.00,0.00
529,-0.152672,-0.099237,-0.152672,0.000732,-0.009521,0.986084,0.00,0.00,0.00
530,-0.045802,-0.114504,-0.061069,-0.002441,-0.007568,0.997314,0.00,0.00,0.00
531,0.045802,0.129771,-0.129771,0.005615,-0.011719,0.997314,0.00,0.00,0.00
532,-0.053435,-0.053435,-0.061069,0.000488,-0.005127,0.994629,0.00,0.00,0.00
533,-0.030534,0.022901,-0.076336,-0.007080,-0.011230,0.993164,0.00,0.00,0.00
534,-0.038168,0.198473,-0.083969,-0.000244,-0.016113,1.000000,0.00,0.00,0.00
535,-0.068702,-0.175573,0.045802,0.000488,-0.006592,1.002441,0.00,0.00,0.00
536,0.030534,0.160305,0.030534,0.002441,-0.010010,1.000488,0.00,0.00,0.00
537,-0.152672,-0.251908,0.022901,0.010010,-0.004639,0.993896,0.00,0.00,0.00
538,0.236641,0.106870,0.007634,0.003418,-0.005371,1.000244,0.00,0.00,0.00
539,0.083969,0.251908,-0.068702,0.008545,-0.008301,0.992920,0.00,0.00,0.00
540,-0.007634,-0.038168,0.137405,-0.002441,-0.008057,0.998779,0.00,0.00,0.00
541,0.061069,0.335878,-0.091603,0.005371,-0.005127,0.993164,0.00,0.00,0.00
542,-0.038168,-0.015267,0.114504,0.004150,-0.008057,1.003662,0.00,0.00,0.00
543,0.282443,0.045802,-0.236641,0.001221,-0.010254,1.000488,0.00,0.00,0.00
544,0.068702,0.015267,-0.053435,0.001221,-0.011719,1.000244,0.00,0.00,0.00
545,0.015267,-0.061069,-0.099237,-0.000732,-0.011719,1.008057,0.00,0.00,0.00
546,-0.022901,0.045802,0.160305,0.006836,-0.010986,0.994873,0.00,0.00,0.00
547,-0.167939,-0.221374,0.068702,0.005371,-0.004150,0.995361,0.00,0.00,0.00
548,0.152672,0.053435,-0.145038,0.002197,-0.007324,1.002197,0.00,0.00,0.00
549,-0.282443,0.000000,-0.099237,0.000732,-0.005615,0.985840,0.00,0.00,0.00
550,-0.091603,-0.145038,-0.106870,-0.002930,-0.010742,1.000977,0.00,0.00,0.00
551,0.099237,0.160305,-0.167939,0.000000,-0.013184,0.995850,0.00,0.00,0.00
552,-0.022901,-0.045802,-0.007634,-0.000244,-0.008301,1.000244,0.00,0.00,0.00
553,0.167939,0.343511,0.053435,-0.002930,-0.011963,1.003418,0.00,0.00,0.00
554,-0.030534,0.022901,0.022901,0.004150,-0.010010,0.995605,0.00,0.00,0.00
555,-0.038168,0.076336,0.083969,0.002686,-0.008057,0.991699,0.00,0.00,0.00
556,0.068702,0.213740,-0.122137,0.007568,-0.013672,0.996094,0.00,0.00,0.00
557,-0.068702,-0.099237,-0.045802,0.004883,-0.008545,1.001953,0.00,0.00,0.00
558,0.038168,0.114504,-0.183206,0.006348,-0.012939,1.008545,0.00,0.00,0.00
559,-0.106870,0.045802,-0.053435,0.003906,-0.010498,0.993652,0.00,0.00,0.00
560,0.106870,-0.038168,-0.099237,0.002686,-0.006592,1.006836,0.00,0.00,0.00
561,0.015267,0.312977,-0.015267,0.000000,-0.007324,0.995117,0.00,0.00,0.00
562,-0.083969,-0.213740,-0.068702,0.000000,-0.002686,0.991455,0.00,0.00,0.00
563,0.183206,0.114504,-0.099237,-0.004639,-0.005615,1.004883,0.00,0.00,0.00
564,0.045802,-0.022901,-0.091603,0.008057,-0.009033,0.996826,0.00,0.00,0.00
565,-0.083969,-0.091603,-0.175573,-0.003906,-0.001953,0.999512,0.00,0.00,0.00
566,0.007634,0.122137,0.145038,0.007812,-0.010742,0.994385,0.00,0.00,0.00
567,-0.022901,0.076336,0.007634,-0.007324,-0.002197,0.994141,0.00,0.00,0.00
568,0.190840,0.122137,0.045802,0.000488,-0.008301,1.004395,0.00,0.00,0.00
569,0.267176,-0.099237,-0.030534,0.001465,-0.002686,0.993652,0.00,0.00,0.00
570,0.022901,-0.083969,0.175573,-0.004150,-0.009033,1.004639,0.00,0.00,0.00
571,0.015267,0.152672,-0.076336,0.009277,-0.016113,0.999268,0.00,0.00,0.00
572,-0.236641,-0.221374,-0.083969,0.003418,-0.005859,0.997314,0.00,0.00,0.00
573,0.068702,0.122137,0.015267,0.007324,-0.010010,0.997314,0.00,0.00,0.00
574,-0.114504,0.045802,-0.106870,0.013428,-0.008057,0.996338,0.00,0.00,0.00
575,-0.137405,-0.122137,-0.030534,-0.000488,-0.011230,0.995117,0.00,0.00,0.00
576,-0.061069,0.206107,-0.038168,0.000732,-0.009521,0.993896,0.00,0.00,0.00
577,-0.030534,-0.061069,0.000000,0.003418,-0.010254,1.001465,0.00,0.00,0.00
578,0.137405,0.038168,0.152672,-0.002441,-0.010986,0.990723,0.00,0.00,0.00
579,0.007634,-0.061069,-0.022901,0.004883,-0.003418,1.000488,0.00,0.00,0.00
580,-0.137405,-0.290076,-0.022901,0.000244,-0.003662,0.996826,0.00,0.00,0.00
581,0.160305,0.099237,0.045802,0.004883,-0.008545,0.994141,0.00,0.00,0.00
582,0.091603,-0.099237,0.007634,0.001953,-0.005859,0.994629,0.00,0.00,0.00
583,-0.045802,0.038168,-0.091603,-0.001953,-0.006348,1.000732,0.00,0.00,0.00
584,-0.038168,0.068702,0.099237,0.003906,-0.009277,1.006348,0.00,0.00,0.00
585,-0.160305,-0.137405,-0.122137,-0.000488,-0.007080,0.992920,0.00,0.00,0.00
586,-0.038168,0.114504,0.038168,0.004883,-0.013428,0.995850,0.00,0.00,0.00
587,0.022901,-0.091603,0.000000,0.000732,-0.009033,1.000488,0.00,0.00,0.00
588,-0.022901,0.038168,0.114504,0.000000,-0.005859,1.014404,0.00,0.00,0.00
589,-0.068702,-0.061069,0.053435,0.005615,-0.001709,0.986328,0.00,0.00,0.00
590,0.076336,-0.091603,-0.015267,0.005127,-0.009521,0.999268,0.00,0.00,0.00
591,0.038168,0.213740,0.015267,0.000732,-0.011963,0.999023,0.00,0.00,0.00
592,0.053435,0.137405,0.000000,0.003174,-0.008301,0.989258,0.00,0.00,0.00
593,-0.190840,-0.190840,-0.038168,0.006104,-0.010254,0.998535,0.00,0.00,0.00
594,-0.015267,-0.038168,0.000000,0.002686,-0.006348,0.998047,0.00,0.00,0.00
595,0.061069,-0.053435,-0.091603,0.005615,-0.011475,1.003418,0.00,0.00,0.00
596,0.083969,0.183206,0.083969,0.001221,-0.006104,1.007080,0.00,0.00,0.00
597,0.122137,-0.160305,0.045802,0.003418,-0.008789,0.993408,0.00,0.00,0.00
598,0.259542,-0.030534,0.030534,0.005615,-0.012939,1.005859,0.00,0.00,0.00
599,0.015267,0.061069,0.007634,-0.000244,-0.010010,0.996826,0.00,0.00,0.00
600,-0.190840,-0.282443,-0.030534,0.007568,-0.003174,0.999512,0.00,0.00,0.00
601,0.061069,-0.022901,-0.022901,-0.004150,-0.002441,0.996826,0.00,0.00,0.00
602,-0.061069,0.015267,0.068702,0.000977,-0.010254,0.993164,0.00,0.00,0.00
603,0.068702,-0.083969,-0.175573,-0.001465,-0.000244,1.004395,0.00,0.00,0.00
604,0.045802,0.038168,-0.022901,0.002930,-0.012939,0.988525,0.00,0.00,0.00
605,-0.038168,-0.259542,-0.038168,0.003906,-0.010742,0.998047,0.00,0.00,0.00
606,0.076336,0.167939,-0.145038,-0.001709,-0.009033,1.002197,0.00,0.00,0.00
607,-0.068702,-0.061069,-0.114504,0.002930,-0.005615,0.988770,0.00,0.00,0.00
608,-0.114504,-0.076336,-0.145038,-0.000977,-0.009521,1.006592,0.00,0.00,0.00
609,0.015267,-0.015267,0.000000,0.004150,-0.010010,0.993652,0.00,0.00,0.00
610,-0.022901,-0.061069,0.015267,-0.004150,-0.007080,1.002686,0.00,0.00,0.00
611,0.114504,-0.015267,0.022901,0.005859,-0.002930,1.008545,0.00,0.00,0.00
612,-0.068702,-0.129771,0.068702,0.005127,-0.004639,1.000977,0.00,0.00,0.00
613,-0.099237,-0.152672,0.083969,0.003174,-0.007812,1.003418,0.00,0.00,0.00
614,0.190840,0.221374,-0.106870,-0.001709,-0.008057,0.996582,0.00,0.00,0.00
615,-0.129771,-0.091603,-0.145038,0.003174,-0.006836,0.989014,0.00,0.00,0.00
616,0.106870,-0.061069,-0.129771,-0.001465,-0.008301,1.000977,0.00,0.00,0.00
617,0.091603,0.274809,-0.045802,-0.005127,-0.012939,1.003662,0.00,0.00,0.00
618,0.022901,-0.297710,0.045802,-0.002197,-0.006592,1.005127,0.00,0.00,0.00
619,0.083969,0.030534,0.022901,-0.001709,-0.007568,0.999268,0.00,0.00,0.00
620,-0.129771,-0.152672,0.106870,-0.003662,-0.007080,1.001221,0.00,0.00,0.00
621,-0.083969,-0.297710,-0.160305,0.000488,-0.006104,0.995361,0.00,0.00,0.00
622,-0.053435,-0.038168,-0.015267,0.003906,-0.008789,1.001221,0.00,0.00,0.00
623,-0.038168,-0.175573,0.061069,0.010742,-0.008057,1.010742,0.00,0.00,0.00
624,-0.038168,-0.030534,0.053435,0.002441,-0.008057,0.995117,0.00,0.00,0.00
625,0.068702,-0.175573,-0.236641,0.006836,-0.001465,0.999512,0.00,0.00,0.00
626,0.160305,-0.015267,0.022901,-0.002686,-0.004150,1.003174,0.00,0.00,0.00
627,0.000000,-0.099237,0.000000,-0.001221,-0.011230,0.990723,0.00,0.00,0.00
628,-0.030534,-0.022901,-0.267176,0.003174,-0.009521,1.004883,0.00,0.00,0.00
629,-0.022901,0.000000,-0.114504,-0.000244,-0.008789,1.006836,0.00,0.00,0.00
630,0.091603,-0.259542,0.045802,0.006348,-0.010498,0.987061,0.00,0.00,0.00
631,0.083969,-0.122137,-0.221374,-0.003174,-0.008789,1.004639,0.00,0.00,0.00
632,-0.022901,0.053435,-0.038168,0.004639,-0.007324,1.002197,0.00,0.00,0.00
633,-0.198473,-0.061069,-0.076336,0.005859,-0.008301,1.000244,0.00,0.00,0.00
634,0.053435,0.099237,0.015267,-0.004395,-0.009766,1.007812,0.00,0.00,0.00
635,-0.114504,-0.038168,-0.114504,0.009033,-0.005127,0.994141,0.00,0.00,0.00
636,0.045802,-0.312977,-0.091603,-0.000732,-0.003906,1.010498,0.00,0.00,0.00
637,-0.038168,-0.007634,-0.053435,0.009521,-0.014404,1.002686,0.00,0.00,0.00
638,-0.022901,-0.167939,-0.038168,0.000244,-0.005615,0.999268,0.00,0.00,0.00
639,-0.022901,0.061069,0.152672,-0.001953,-0.007812,0.997559,0.00,0.00,0.00
640,-0.038168,-0.152672,-0.022901,-0.004639,-0.010010,0.995850,0.00,0.00,0.00
641,-0.030534,-0.145038,0.053435,0.003906,-0.013184,1.000732,0.00,0.00,0.00
642,0.053435,0.030534,0.229008,0.002197,-0.004395,0.998047,0.00,0.00,0.00
643,-0.091603,-0.381679,0.282443,0.011475,-0.009521,0.988037,0.00,0.00,0.00
644,0.045802,-0.244275,0.595420,0.014893,-0.011963,0.992676,0.00,0.00,0.00
645,-0.320611,-0.175573,1.160305,0.010498,-0.002197,0.988037,0.00,0.00,0.00
646,-0.152672,-0.251908,2.297710,0.035645,-0.011230,1.008301,0.00,0.00,0.00
647,-0.419847,-1.312977,4.320611,0.082520,-0.034912,0.992676,0.00,0.00,0.00
648,-1.633588,-4.030534,2.587786,0.153076,-0.020752,1.008301,0.00,0.00,0.00
649,0.221374,0.129771,6.503817,0.074463,-0.006836,1.002930,0.00,0.00,0.00
650,-1.091603,-2.267176,11.297710,-0.045654,0.014160,1.004639,0.00,0.00,0.00
651,0.167939,-0.282443,8.633588,-0.099854,-0.008057,0.991455,0.00,0.00,0.00
652,-0.213740,0.053435,4.717557,-0.103760,-0.001953,1.000977,0.00,0.00,0.00
653,-0.175573,-0.129771,1.648855,-0.077637,-0.004395,1.003418,0.00,0.00,0.00
654,0.122137,0.145038,0.404580,-0.031982,-0.010498,0.990479,0.00,0.00,0.00
655,-0.083969,-0.045802,0.022901,0.008789,-0.007080,0.998047,0.00,0.00,0.00
656,0.076336,0.618321,0.129771,0.008789,-0.006104,1.000488,0.00,0.00,0.00
657,0.061069,0.122137,0.259542,0.004639,-0.006104,0.998779,0.00,0.00,0.00
658,0.007634,0.114504,0.251908,0.000977,-0.005615,0.995850,0.00,0.00,0.00
659,-0.068702,0.297710,0.480916,0.013184,-0.008545,0.995361,0.00,0.00,0.00
660,-0.053435,0.007634,0.877863,0.001465,-0.000977,0.998047,0.00,0.00,0.00
661,0.190840,-0.030534,1.534351,0.026123,-0.001953,1.008301,0.00,0.00,0.00
662,-0.244275,-0.366412,2.160305,0.016113,-0.007568,1.002197,0.00,0.00,0.00
663,-0.015267,-0.381679,2.213740,0.016602,-0.011230,1.007568,0.00,0.00,0.00
664,-0.091603,-0.427481,2.549618,0.040527,-0.005615,1.000488,0.00,0.00,0.00
665,-0.343511,-0.717557,3.175573,0.013916,-0.003174,0.999756,0.00,0.00,0.00
666,0.106870,-0.374046,3.061069,-0.015381,-0.004395,0.991699,0.00,0.00,0.00
667,-0.251908,-0.328244,2.396947,-0.010254,-0.010498,0.995605,0.00,0.00,0.00
668,-0.167939,-0.404580,1.488550,-0.032471,-0.007568,0.990479,0.00,0.00,0.00
669,0.175573,0.000000,0.603053,-0.015869,-0.016113,0.986572,0.00,0.00,0.00
670,-0.213740,-0.152672,0.488550,-0.003906,-0.005859,0.999756,0.00,0.00,0.00
671,0.045802,0.122137,0.396947,0.000244,-0.010742,1.002197,0.00,0.00,0.00
672,-0.038168,-0.145038,0.526718,0.001709,-0.009521,0.989014,0.00,0.00,0.00
673,0.038168,0.007634,0.404580,-0.001221,-0.008789,1.001221,0.00,0.00,0.00
674,-0.106870,-0.083969,0.625954,0.007080,-0.007568,0.998291,0.00,0.00,0.00
675,-0.122137,-0.206107,0.679389,0.004639,-0.004150,1.002441,0.00,0.00,0.00
676,-0.114504,-0.305344,0.671756,0.014648,-0.008057,1.000732,0.00,0.00,0.00
677,-0.213740,-0.511450,1.206107,0.024414,-0.004639,1.003906,0.00,0.00,0.00
678,-0.145038,-0.519084,1.450382,0.006348,-0.002441,1.004639,0.00,0.00,0.00
679,0.061069,0.000000,1.114504,-0.012451,-0.010986,1.004150,0.00,0.00,0.00
680,-0.083969,-0.091603,0.534351,-0.010986,-0.010498,1.008545,0.00,0.00,0.00
681,0.122137,-0.015267,0.061069,-0.019287,-0.007080,0.994873,0.00,0.00,0.00
682,0.183206,0.175573,-0.190840,0.005371,-0.007812,1.002686,0.00,0.00,0.00
683,-0.274809,-0.061069,-0.045802,-0.001221,-0.010010,0.994873,0.00,0.00,0.00
684,0.083969,0.427481,-0.122137,0.006592,-0.010254,1.002197,0.00,0.00,0.00
685,-0.114504,-0.099237,-0.030534,0.006104,-0.008789,1.001465,0.00,0.00,0.00
686,-0.022901,-0.022901,-0.122137,0.001465,-0.005859,1.001709,0.00,0.00,0.00
687,0.083969,0.381679,-0.053435,0.005615,-0.007812,1.009033,0.00,0.00,0.00
688,0.038168,-0.030534,0.015267,-0.001465,-0.006348,0.998291,0.00,0.00,0.00
689,0.206107,0.534351,0.015267,0.006348,-0.010254,0.989014,0.00,0.00,0.00
690,-0.267176,-0.015267,-0.061069,0.001953,-0.003418,0.988037,0.00,0.00,0.00
691,0.167939,0.061069,-0.007634,0.001709,-0.010742,1.000488,0.00,0.00,0.00
692,0.122137,0.221374,0.022901,0.007568,-0.009521,1.000732,0.00,0.00,0.00
693,-0.190840,-0.251908,-0.038168,-0.002930,-0.006836,0.996582,0.00,0.00,0.00
694,0.236641,0.114504,-0.206107,-0.003662,-0.010254,1.000000,0.00,0.00,0.00
695,0.030534,-0.061069,-0.129771,0.007812,-0.010742,0.993896,0.00,0.00,0.00
696,0.137405,0.167939,-0.122137,-0.001953,-0.010010,1.015137,0.00,0.00,0.00
697,0.007634,0.038168,-0.183206,0.005859,-0.004639,1.003662,0.00,0.00,0.00
698,-0.160305,-0.206107,-0.015267,-0.001465,-0.006592,0.997803,0.00,0.00,0.00
699,0.282443,0.305344,0.091603,0.004883,-0.010498,0.997559,0.00,0.00,0.00
700,-0.076336,-0.015267,-0.061069,0.002930,-0.012695,0.991943,0.00,0.00,0.00
701,-0.129771,-0.068702,-0.160305,-0.004639,-0.006836,1.001221,0.00,0.00,0.00
702,0.099237,0.167939,-0.106870,0.004639,-0.010254,0.988770,0.00,0.00,0.00
703,0.053435,-0.221374,-0.007634,0.001709,-0.011230,0.995117,0.00,0.00,0.00
704,0.114504,0.068702,-0.129771,0.006104,-0.007568,1.002930,0.00,0.00,0.00
705,-0.076336,0.000000,0.045802,0.003662,-0.008789,0.999512,0.00,0.00,0.00
706,0.045802,0.045802,0.175573,-0.005127,-0.009277,1.013428,0.00,0.00,0.00
707,0.045802,0.129771,-0.007634,0.006104,-0.007080,1.001465,0.00,0.00,0.00
708,0.000000,-0.213740,-0.015267,0.003906,-0.007080,0.998047,0.00,0.00,0.00
709,0.160305,-0.022901,-0.083969,0.001709,-0.014160,1.000244,0.00,0.00,0.00
710,-0.129771,-0.007634,-0.236641,0.007080,-0.013428,0.995605,0.00,0.00,0.00
711,0.183206,-0.122137,0.007634,-0.001465,-0.012207,0.999268,0.00,0.00,0.00
712,0.091603,0.213740,-0.015267,0.005615,-0.006836,0.999512,0.00,0.00,0.00
713,-0.038168,-0.274809,-0.106870,-0.002197,-0.008057,1.008789,0.00,0.00,0.00
714,0.022901,0.229008,-0.160305,0.006104,-0.006836,1.000000,0.00,0.00,0.00
715,0.145038,-0.091603,0.053435,0.003906,-0.009033,0.997314,0.00,0.00,0.00
716,-0.007634,-0.061069,-0.160305,0.001709,-0.003662,1.009521,0.00,0.00,0.00
717,0.274809,0.038168,-0.160305,0.012207,-0.010742,1.002197,0.00,0.00,0.00
718,-0.137405,-0.221374,-0.137405,-0.002197,-0.007080,0.992188,0.00,0.00,0.00
719,0.106870,0.038168,-0.068702,0.004883,-0.005615,1.001709,0.00,0.00,0.00
720,0.137405,-0.045802,-0.083969,0.003906,-0.004639,0.994385,0.00,0.00,0.00
721,-0.106870,-0.083969,-0.152672,-0.005371,-0.012939,1.002930,0.00,0.00,0.00
722,0.198473,0.122137,-0.099237,0.000977,-0.010254,0.989258,0.00,0.00,0.00
723,-0.015267,-0.351145,-0.198473,-0.003418,-0.007324,1.001221,0.00,0.00,0.00
724,0.213740,0.038168,-0.015267,0.004639,-0.010986,0.997070,0.00,0.00,0.00
725,-0.083969,0.007634,-0.030534,0.008057,-0.009277,0.994141,0.00,0.00,0.00
726,-0.091603,-0.122137,0.007634,-0.000244,-0.010254,0.996338,0.00,0.00,0.00
727,-0.030534,0.312977,-0.129771,0.003662,-0.016113,0.992676,0.00,0.00,0.00
728,-0.007634,-0.312977,-0.145038,0.004395,-0.010742,1.000732,0.00,0.00,0.00
729,0.160305,0.190840,0.007634,0.001953,-0.010254,1.006348,0.00,0.00,0.00
730,-0.129771,0.229008,-0.030534,0.007568,-0.006836,0.983154,0.00,0.00,0.00
731,-0.022901,-0.045802,-0.091603,0.005859,-0.000732,1.007812,0.00,0.00,0.00
732,0.099237,0.328244,-0.206107,0.001221,-0.004150,0.998779,0.00,0.00,0.00
733,-0.175573,-0.076336,-0.106870,0.006836,-0.007568,0.999512,0.00,0.00,0.00
734,0.106870,0.099237,0.022901,0.000244,-0.008545,0.996338,0.00,0.00,0.00
735,0.137405,0.076336,-0.007634,0.007324,-0.011963,0.998779,0.00,0.00,0.00
736,-0.114504,0.015267,-0.053435,-0.006104,-0.007080,1.001953,0.00,0.00,0.00
737,0.251908,0.160305,-0.045802,-0.000488,-0.005371,1.001709,0.00,0.00,0.00
738,-0.030534,-0.015267,-0.061069,-0.000732,-0.006348,0.987549,0.00,0.00,0.00
739,0.076336,-0.053435,-0.022901,-0.002686,-0.008789,0.993652,0.00,0.00,0.00
740,-0.007634,0.152672,-0.022901,0.002441,-0.015137,0.997559,0.00,0.00,0.00
741,-0.251908,-0.320611,-0.114504,-0.000732,-0.008057,1.000244,0.00,0.00,0.00
742,0.236641,0.106870,0.251908,0.002930,-0.011230,1.003906,0.00,0.00,0.00
743,-0.206107,-0.198473,-0.106870,-0.000488,-0.006104,0.995117,0.00,0.00,0.00
744,-0.007634,0.038168,0.007634,0.002441,-0.000244,1.005371,0.00,0.00,0.00
745,0.175573,-0.030534,0.061069,0.005615,-0.010010,0.987549,0.00,0.00,0.00
746,0.022901,-0.297710,-0.045802,-0.000244,-0.003906,1.005615,0.00,0.00,0.00
747,0.221374,0.053435,0.175573,0.003174,-0.010254,0.990723,0.00,0.00,0.00
748,-0.152672,-0.137405,-0.114504,0.005615,-0.001953,0.992188,0.00,0.00,0.00
749,-0.076336,0.068702,-0.045802,0.001709,-0.009766,1.004150,0.00,0.00,0.00
750,-0.152672,-0.022901,-0.106870,0.007324,-0.011719,0.990723,0.00,0.00,0.00
751,-0.106870,-0.206107,0.068702,-0.000244,-0.005371,1.006592,0.00,0.00,0.00
752,0.129771,0.038168,-0.022901,0.006592,-0.013184,0.990723,0.00,0.00,0.00
753,-0.137405,-0.175573,-0.068702,0.001709,-0.007812,0.993164,0.00,0.00,0.00
754,0.213740,0.091603,0.007634,0.002930,-0.007568,1.007812,0.00,0.00,0.00
755,0.030534,0.167939,0.145038,0.004395,-0.008545,1.000244,0.00,0.00,0.00
756,-0.091603,-0.022901,-0.076336,-0.008789,-0.003906,1.000488,0.00,0.00,0.00
757,0.206107,0.198473,-0.099237,0.007568,-0.004883,0.993408,0.00,0.00,0.00
758,-0.076336,-0.099237,-0.244275,0.001221,-0.003418,1.004883,0.00,0.00,0.00
759,0.053435,-0.076336,-0.190840,0.001465,-0.010010,1.007080,0.00,0.00,0.00
760,-0.099237,0.114504,-0.137405,0.004150,-0.002686,0.998047,0.00,0.00,0.00
761,-0.152672,-0.045802,0.053435,-0.002441,-0.007080,1.006348,0.00,0.00,0.00
762,0.068702,0.221374,-0.030534,0.007080,-0.005859,1.003662,0.00,0.00,0.00
763,-0.038168,-0.038168,-0.015267,0.004639,-0.008301,0.991699,0.00,0.00,0.00
764,0.221374,0.076336,-0.129771,-0.001953,-0.008057,1.003906,0.00,0.00,0.00
765,-0.122137,-0.045802,-0.122137,0.007568,-0.013428,0.990967,0.00,0.00,0.00
766,-0.061069,-0.091603,-0.015267,0.002441,-0.009277,0.993408,0.00,0.00,0.00
767,0.030534,0.381679,-0.183206,0.000977,-0.010498,0.997559,0.00,0.00,0.00
768,-0.122137,-0.129771,-0.038168,0.000977,-0.014160,0.996826,0.00,0.00,0.00
769,-0.061069,-0.038168,-0.061069,-0.003174,-0.004395,1.012207,0.00,0.00,0.00
770,0.076336,0.015267,0.030534,0.005127,-0.007568,0.994873,0.00,0.00,0.00
771,0.022901,-0.145038,0.068702,0.000732,-0.010742,1.004883,0.00,0.00,0.00
772,0.122137,0.045802,-0.106870,0.002441,-0.009033,0.999512,0.00,0.00,0.00
773,-0.175573,-0.229008,-0.045802,0.002930,-0.007324,0.992432,0.00,0.00,0.00
774,-0.167939,-0.045802,0.030534,0.000732,-0.008057,1.009033,0.00,0.00,0.00
775,0.068702,0.091603,0.099237,0.009521,-0.014404,0.989746,0.00,0.00,0.00
776,-0.152672,-0.175573,-0.061069,0.002197,-0.001953,1.001465,0.00,0.00,0.00
777,0.221374,0.267176,-0.038168,0.007812,-0.008301,0.990723,0.00,0.00,0.00
778,-0.091603,0.038168,-0.030534,0.007324,-0.010010,0.999512,0.00,0.00,0.00
779,0.152672,-0.229008,0.091603,-0.003662,-0.011719,1.002686,0.00,0.00,0.00
780,-0.061069,0.152672,-0.099237,0.005859,-0.012939,0.990723,0.00,0.00,0.00
781,-0.007634,-0.274809,-0.061069,0.002197,-0.010986,1.001709,0.00,0.00,0.00
782,0.175573,0.083969,-0.106870,0.001221,-0.001953,1.000244,0.00,0.00,0.00
783,0.007634,-0.068702,-0.114504,0.006592,-0.003662,0.999756,0.00,0.00,0.00
784,-0.022901,-0.099237,-0.068702,0.007324,-0.006836,1.005371,0.00,0.00,0.00
785,0.259542,0.137405,-0.068702,0.010010,-0.014404,0.994385,0.00,0.00,0.00
786,-0.160305,-0.198473,-0.076336,0.000977,-0.004883,0.993408,0.00,0.00,0.00
787,0.099237,0.076336,-0.038168,0.002197,-0.008057,1.000732,0.00,0.00,0.00
788,0.007634,-0.007634,-0.015267,0.002686,-0.008789,0.984619,0.00,0.00,0.00
789,-0.091603,-0.221374,-0.007634,0.002686,-0.003906,0.996826,0.00,0.00,0.00
790,0.305344,0.129771,0.053435,0.001709,-0.012207,0.996094,0.00,0.00,0.00
791,-0.282443,-0.167939,-0.061069,0.003174,-0.005371,0.997559,0.00,0.00,0.00
792,0.114504,0.022901,-0.099237,0.002441,-0.009277,0.998535,0.00,0.00,0.00
793,-0.091603,0.068702,0.068702,0.000977,-0.010986,0.996094,0.00,0.00,0.00
794,-0.038168,-0.198473,-0.007634,-0.002197,-0.010010,0.991943,0.00,0.00,0.00
795,0.114504,-0.007634,0.053435,0.006592,-0.011719,0.998047,0.00,0.00,0.00
796,-0.213740,-0.328244,-0.297710,0.007324,-0.005859,0.996826,0.00,0.00,0.00
797,0.114504,0.076336,-0.106870,0.002686,-0.010254,0.994141,0.00,0.00,0.00
798,0.000000,-0.251908,0.061069,0.009277,-0.015137,0.986816,0.00,0.00,0.00
799,-0.145038,-0.045802,-0.038168,-0.003662,-0.003418,1.001221,0.00,0.00,0.00
800,0.160305,0.297710,-0.114504,0.001709,-0.014160,0.993408,0.00,0.00,0.00
801,-0.213740,-0.343511,-0.007634,0.000244,-0.014404,0.988770,0.00,0.00,0.00
802,0.160305,0.045802,0.167939,0.001709,-0.004150,1.000244,0.00,0.00,0.00
803,0.061069,-0.030534,-0.061069,0.007568,-0.012695,0.994141,0.00,0.00,0.00
804,-0.038168,-0.274809,0.007634,-0.000732,-0.009766,1.005615,0.00,0.00,0.00
805,0.229008,0.206107,0.061069,0.001709,-0.010742,0.998047,0.00,0.00,0.00
806,-0.061069,-0.099237,-0.099237,0.001221,-0.010010,0.990479,0.00,0.00,0.00
807,0.198473,0.183206,-0.053435,-0.001709,-0.012207,1.007568,0.00,0.00,0.00
808,-0.190840,0.068702,0.045802,0.001465,-0.006836,0.997559,0.00,0.00,0.00
809,-0.053435,-0.122137,-0.068702,0.000488,-0.003662,1.010010,0.00,0.00,0.00
810,0.061069,0.091603,0.206107,0.001465,-0.011963,0.992920,0.00,0.00,0.00
811,-0.183206,-0.160305,0.045802,-0.001709,-0.006592,0.984131,0.00,0.00,0.00
812,0.221374,0.038168,0.152672,0.000000,-0.008789,1.004639,0.00,0.00,0.00
813,0.175573,0.045802,0.045802,0.010254,-0.006104,0.989014,0.00,0.00,0.00
814,0.000000,-0.221374,-0.152672,0.001953,-0.008789,1.000488,0.00,0.00,0.00
815,-0.061069,0.137405,0.045802,0.007080,-0.012207,1.003906,0.00,0.00,0.00
816,-0.076336,-0.129771,0.053435,-0.002197,-0.005859,1.002197,0.00,0.00,0.00
817,0.061069,0.175573,-0.091603,0.003906,-0.010010,1.007812,0.00,0.00,0.00
818,0.145038,0.045802,-0.175573,0.010010,-0.004639,0.990967,0.00,0.00,0.00
819,-0.122137,-0.274809,0.030534,-0.005371,-0.004395,1.008057,0.00,0.00,0.00
820,-0.030534,0.053435,0.038168,0.002197,-0.011719,1.000000,0.00,0.00,0.00
821,-0.221374,-0.305344,-0.068702,0.005127,-0.010010,0.994629,0.00,0.00,0.00
822,0.129771,0.137405,-0.061069,0.003906,-0.002930,1.003418,0.00,0.00,0.00
823,-0.007634,-0.053435,-0.106870,0.014160,-0.013916,0.992676,0.00,0.00,0.00
824,0.015267,-0.152672,0.000000,-0.007812,-0.001221,1.001465,0.00,0.00,0.00
825,0.244275,0.167939,0.000000,0.006104,-0.009033,0.993164,0.00,0.00,0.00
826,-0.106870,-0.221374,0.000000,-0.004639,-0.010254,0.990967,0.00,0.00,0.00
827,0.152672,0.083969,-0.206107,0.004150,-0.007812,0.993652,0.00,0.00,0.00
828,-0.015267,0.167939,-0.061069,0.000488,-0.015381,0.989746,0.00,0.00,0.00
829,0.083969,-0.175573,0.068702,0.001465,-0.006836,1.000488,0.00,0.00,0.00
830,0.160305,0.229008,-0.030534,0.004883,-0.006348,0.994141,0.00,0.00,0.00
831,-0.167939,0.000000,-0.083969,0.000977,-0.008545,0.991455,0.00,0.00,0.00
832,0.137405,-0.007634,-0.083969,-0.004395,-0.010010,1.002930,0.00,0.00,0.00
833,0.030534,0.137405,-0.145038,0.004395,-0.004639,0.990967,0.00,0.00,0.00
834,-0.251908,-0.328244,-0.099237,0.003906,-0.006836,0.997559,0.00,0.00,0.00
835,0.122137,0.160305,-0.015267,0.002930,-0.009277,0.995850,0.00,0.00,0.00
836,0.007634,-0.221374,-0.160305,0.007080,-0.015381,0.981201,0.00,0.00,0.00
837,-0.053435,-0.129771,-0.145038,0.000000,-0.012939,0.995850,0.00,0.00,0.00
838,0.007634,-0.030534,-0.106870,0.007568,-0.013672,1.000977,0.00,0.00,0.00
839,-0.129771,-0.190840,0.022901,0.006836,-0.005859,1.000488,0.00,0.00,0.00
840,0.106870,-0.007634,-0.106870,-0.000977,-0.013428,1.001953,0.00,0.00,0.00
841,0.076336,-0.114504,0.068702,0.006104,-0.008301,0.997559,0.00,0.00,0.00
842,0.106870,0.022901,-0.099237,-0.001221,-0.007324,1.002930,0.00,0.00,0.00
843,0.045802,0.106870,0.030534,0.005127,-0.006592,1.000244,0.00,0.00,0.00
844,-0.022901,-0.206107,-0.206107,0.003906,-0.014404,1.006836,0.00,0.00,0.00
845,0.145038,0.160305,0.007634,0.004639,-0.008057,1.005127,0.00,0.00,0.00
846,-0.045802,-0.061069,-0.152672,0.008301,-0.010498,0.997803,0.00,0.00,0.00
847,-0.015267,-0.114504,-0.038168,-0.000488,-0.006592,0.995850,0.00,0.00,0.00
848,0.244275,0.190840,-0.061069,0.008057,-0.011963,1.003174,0.00,0.00,0.00
849,-0.099237,-0.091603,-0.198473,0.000000,-0.011475,0.997559,0.00,0.00,0.00
850,0.145038,0.251908,0.053435,0.004639,-0.009033,1.010986,0.00,0.00,0.00
851,-0.122137,-0.083969,-0.091603,0.009521,-0.006836,0.996826,0.00,0.00,0.00
852,-0.068702,0.030534,-0.045802,-0.000244,-0.012207,1.008789,0.00,0.00,0.00
853,0.099237,0.236641,-0.106870,0.005859,-0.010742,0.985840,0.00,0.00,0.00
854,-0.099237,-0.312977,-0.198473,-0.002930,-0.005859,0.991455,0.00,0.00,0.00
855,0.045802,0.213740,-0.083969,-0.004639,-0.005859,1.007568,0.00,0.00,0.00
856,-0.015267,-0.152672,-0.183206,0.006592,-0.009766,0.993896,0.00,0.00,0.00
857,0.190840,-0.412214,-0.160305,0.006348,-0.002441,0.999023,0.00,0.00,0.00
858,0.030534,0.068702,0.038168,0.005859,-0.010742,0.983887,0.00,0.00,0.00
859,-0.160305,-0.175573,-0.083969,0.005615,-0.006836,1.004395,0.00,0.00,0.00
860,0.312977,0.206107,-0.106870,0.000244,-0.011963,0.999512,0.00,0.00,0.00
861,-0.175573,0.030534,0.015267,0.006348,-0.004639,1.001465,0.00,0.00,0.00
862,0.068702,-0.152672,-0.236641,-0.004639,-0.005127,0.998779,0.00,0.00,0.00
863,0.198473,0.213740,-0.061069,0.003906,-0.009521,0.997314,0.00,0.00,0.00
864,-0.259542,-0.290076,0.106870,0.003174,-0.008545,0.996826,0.00,0.00,0.00
865,0.175573,0.335878,0.038168,0.000488,-0.011963,0.998291,0.00,0.00,0.00
866,-0.122137,-0.106870,0.244275,0.001465,-0.010254,0.993164,0.00,0.00,0.00
867,0.068702,-0.167939,0.106870,0.001709,-0.000977,1.010986,0.00,0.00,0.00
868,-0.007634,0.022901,0.053435,0.009277,-0.005615,0.994629,0.00,0.00,0.00
869,-0.236641,-0.335878,0.083969,0.002197,-0.007568,1.006592,0.00,0.00,0.00
870,0.221374,0.175573,0.007634,-0.002441,-0.013428,1.001709,0.00,0.00,0.00
871,-0.106870,-0.083969,-0.083969,0.002686,-0.005615,0.999268,0.00,0.00,0.00
872,-0.038168,-0.129771,0.099237,0.000244,-0.003906,1.000488,0.00,0.00,0.00
873,0.091603,0.190840,-0.137405,0.004395,-0.007812,0.996094,0.00,0.00,0.00
874,-0.061069,-0.259542,-0.083969,0.006104,-0.012939,0.996826,0.00,0.00,0.00
875,0.175573,0.190840,-0.038168,0.000000,-0.008789,0.997559,0.00,0.00,0.00
876,-0.114504,-0.083969,-0.145038,0.003418,-0.009033,0.986328,0.00,0.00,0.00
877,0.015267,-0.152672,-0.160305,0.003174,-0.006348,1.000732,0.00,0.00,0.00
878,0.091603,0.335878,-0.175573,0.005615,-0.006348,0.988281,0.00,0.00,0.00
879,-0.091603,-0.297710,-0.022901,-0.003174,-0.008545,1.001953,0.00,0.00,0.00
880,0.106870,0.183206,-0.053435,-0.004150,-0.004639,0.999756,0.00,0.00,0.00
881,-0.068702,-0.229008,0.022901,0.001221,-0.011475,0.986328,0.00,0.00,0.00
882,-0.076336,-0.160305,-0.213740,0.002930,-0.007324,0.996826,0.00,0.00,0.00
883,0.114504,0.175573,-0.053435,0.004150,-0.011963,0.995361,0.00,0.00,0.00
884,-0.160305,-0.183206,-0.076336,0.007812,-0.013916,1.001465,0.00,0.00,0.00
885,0.122137,0.038168,-0.106870,-0.000244,-0.009033,1.005371,0.00,0.00,0.00
886,-0.129771,-0.038168,0.022901,0.003418,-0.011230,0.990967,0.00,0.00,0.00
887,-0.145038,-0.022901,-0.007634,-0.003174,-0.003662,1.003906,0.00,0.00,0.00
888,0.045802,0.106870,-0.007634,-0.001465,-0.006104,1.003418,0.00,0.00,0.00
889,-0.045802,-0.160305,0.007634,0.009766,-0.010986,0.987305,0.00,0.00,0.00
890,0.145038,-0.190840,-0.022901,-0.002197,-0.009277,1.001709,0.00,0.00,0.00
891,0.061069,0.190840,-0.030534,0.005371,-0.005127,0.990479,0.00,0.00,0.00
892,-0.297710,-0.435115,-0.076336,0.002686,-0.004883,1.001953,0.00,0.00,0.00
893,0.282443,0.328244,0.076336,0.000977,-0.010986,0.999512,0.00,0.00,0.00
894,-0.068702,-0.160305,0.221374,0.002197,-0.008057,0.994385,0.00,0.00,0.00
895,0.190840,0.190840,-0.053435,-0.000732,-0.006592,1.009277,0.00,0.00,0.00
896,0.145038,0.076336,0.000000,0.006348,-0.011719,0.993164,0.00,0.00,0.00
897,-0.053435,-0.404580,0.236641,0.001953,-0.004883,1.001221,0.00,0.00,0.00
898,-0.007634,0.335878,-0.015267,-0.001465,-0.001953,1.006592,0.00,0.00,0.00
899,-0.145038,-0.038168,0.038168,0.003906,-0.006592,0.998535,0.00,0.00,0.00
900,0.061069,0.175573,-0.007634,0.001709,-0.003662,0.995605,0.00,0.00,0.00
901,-0.076336,0.038168,0.007634,0.005127,-0.004150,0.993896,0.00,0.00,0.00
902,-0.206107,-0.061069,-0.061069,0.006836,-0.006104,0.998535,0.00,0.00,0.00
903,0.106870,0.412214,0.114504,0.001221,-0.011719,0.998779,0.00,0.00,0.00
904,-0.061069,0.022901,-0.015267,0.002197,-0.009277,0.993652,0.00,0.00,0.00
905,-0.129771,-0.045802,-0.213740,-0.002686,-0.006592,0.992920,0.00,0.00,0.00
906,0.022901,0.213740,-0.145038,0.000244,-0.006104,1.004395,0.00,0.00,0.00
907,-0.030534,-0.167939,0.038168,0.000488,-0.006348,0.999512,0.00,0.00,0.00
908,0.106870,0.129771,-0.091603,0.005371,-0.011963,1.014404,0.00,0.00,0.00
909,-0.190840,-0.167939,-0.030534,0.007812,-0.010986,0.993408,0.00,0.00,0.00
910,-0.083969,0.000000,-0.213740,-0.000732,-0.010254,0.998779,0.00,0.00,0.00
911,-0.122137,0.251908,-0.007634,0.001221,-0.012939,0.990479,0.00,0.00,0.00
912,0.030534,-0.213740,-0.015267,0.002686,-0.003906,1.002930,0.00,0.00,0.00
913,0.038168,0.267176,-0.167939,-0.000488,-0.010986,1.006592,0.00,0.00,0.00
914,-0.183206,0.007634,-0.137405,0.008301,-0.009033,0.999023,0.00,0.00,0.00
915,0.076336,-0.030534,-0.053435,0.001953,-0.003906,1.005127,0.00,0.00,0.00
916,0.053435,0.198473,-0.007634,0.009033,-0.014404,0.996094,0.00,0.00,0.00
917,0.015267,-0.175573,-0.030534,0.005127,-0.001709,1.001465,0.00,0.00,0.00
918,0.335878,0.282443,0.022901,0.005615,-0.004883,0.989258,0.00,0.00,0.00
919,-0.099237,0.053435,-0.129771,0.007324,-0.009766,1.005127,0.00,0.00,0.00
920,0.221374,-0.122137,-0.076336,0.004639,-0.009277,1.000488,0.00,0.00,0.00
921,0.045802,0.229008,-0.137405,0.004639,-0.012695,0.995361,0.00,0.00,0.00
922,-0.206107,-0.129771,-0.160305,0.000000,-0.002686,1.000977,0.00,0.00,0.00
923,0.244275,0.175573,-0.007634,-0.005615,-0.006104,1.002686,0.00,0.00,0.00
924,-0.083969,0.061069,-0.045802,0.003906,-0.007080,0.999512,0.00,0.00,0.00
925,-0.251908,-0.122137,0.137405,-0.003418,-0.007568,1.003174,0.00,0.00,0.00
926,0.267176,0.267176,-0.137405,0.008301,-0.008301,0.997070,0.00,0.00,0.00
927,0.129771,-0.122137,-0.007634,0.003906,-0.006348,1.004883,0.00,0.00,0.00
928,0.114504,0.221374,0.152672,0.008057,-0.012207,0.994385,0.00,0.00,0.00
929,0.106870,-0.152672,-0.137405,0.002930,-0.007812,0.991943,0.00,0.00,0.00
930,-0.022901,0.145038,-0.076336,-0.001221,-0.005127,0.996826,0.00,0.00,0.00
931,0.122137,0.045802,-0.175573,0.002197,-0.007324,0.994629,0.00,0.00,0.00
932,-0.221374,-0.053435,-0.114504,0.000244,-0.007568,0.998291,0.00,0.00,0.00
933,0.244275,0.251908,-0.137405,-0.004150,-0.010986,1.001221,0.00,0.00,0.00
934,-0.053435,0.022901,-0.015267,0.014893,-0.008057,0.994385,0.00,0.00,0.00
935,-0.038168,-0.236641,0.061069,0.000000,-0.004150,1.004639,0.00,0.00,0.00
936,0.007634,0.167939,-0.091603,0.006836,-0.008057,0.995117,0.00,0.00,0.00
937,-0.221374,-0.435115,-0.038168,0.002930,-0.007080,1.001953,0.00,0.00,0.00
938,0.129771,-0.030534,0.007634,-0.001221,-0.003418,1.000000,0.00,0.00,0.00
939,0.091603,0.145038,-0.183206,0.000000,-0.012695,0.997314,0.00,0.00,0.00
940,-0.175573,-0.183206,-0.045802,0.000732,-0.005859,1.005127,0.00,0.00,0.00
941,-0.022901,0.091603,-0.122137,0.003418,-0.011475,1.003418,0.00,0.00,0.00
942,-0.045802,-0.190840,-0.015267,0.009766,-0.006104,0.995117,0.00,0.00,0.00
943,0.122137,0.114504,0.007634,-0.000977,-0.008301,0.999268,0.00,0.00,0.00
944,-0.076336,-0.038168,-0.076336,0.008301,-0.013672,0.990479,0.00,0.00,0.00
945,-0.122137,-0.221374,0.015267,-0.003418,-0.009033,1.009277,0.00,0.00,0.00
946,0.083969,0.251908,0.114504,0.008789,-0.010498,1.002197,0.00,0.00,0.00
947,-0.022901,-0.190840,-0.053435,0.006592,-0.006592,0.983398,0.00,0.00,0.00
948,0.068702,0.076336,0.190840,0.003418,-0.009033,0.997070,0.00,0.00,0.00
949,0.000000,0.038168,-0.030534,0.004395,-0.010986,0.999268,0.00,0.00,0.00
950,-0.030534,-0.198473,-0.068702,-0.000244,-0.006592,0.995850,0.00,0.00,0.00
951,0.129771,0.038168,-0.038168,0.002197,-0.006104,1.001953,0.00,0.00,0.00
952,-0.099237,-0.213740,-0.114504,0.000977,-0.008057,1.009033,0.00,0.00,0.00
953,0.053435,0.114504,-0.122137,-0.000244,-0.011719,1.001221,0.00,0.00,0.00
954,0.076336,0.076336,0.068702,0.004395,-0.009766,0.989502,0.00,0.00,0.00
955,-0.045802,-0.175573,-0.030534,-0.000977,-0.009033,0.996338,0.00,0.00,0.00
956,0.267176,0.259542,-0.068702,0.006104,-0.007568,1.001465,0.00,0.00,0.00
957,-0.122137,-0.083969,-0.206107,0.005127,-0.005615,0.987061,0.00,0.00,0.00
958,-0.030534,0.091603,-0.076336,0.002441,-0.005127,1.004150,0.00,0.00,0.00
959,0.328244,0.114504,0.022901,0.004639,-0.006836,0.992920,0.00,0.00,0.00
960,0.061069,-0.183206,-0.007634,0.002197,-0.006104,1.003174,0.00,0.00,0.00
961,0.297710,0.091603,-0.007634,-0.000732,-0.008545,0.993652,0.00,0.00,0.00
962,-0.099237,-0.076336,0.000000,0.002686,-0.008057,1.001221,0.00,0.00,0.00
963,0.167939,0.068702,0.030534,0.002686,-0.005859,0.995117,0.00,0.00,0.00
964,0.129771,0.030534,-0.022901,0.001953,-0.006348,0.998291,0.00,0.00,0.00
965,-0.274809,0.015267,-0.068702,-0.006348,-0.003906,0.994629,0.00,0.00,0.00
966,0.152672,0.229008,-0.038168,0.003906,-0.008057,1.005859,0.00,0.00,0.00
967,-0.114504,-0.152672,-0.076336,0.000977,-0.009277,0.992676,0.00,0.00,0.00
968,0.076336,-0.022901,0.000000,0.001465,-0.009521,1.002197,0.00,0.00,0.00
969,-0.038168,0.007634,0.000000,0.006836,-0.005615,0.991699,0.00,0.00,0.00
970,-0.114504,-0.206107,-0.007634,0.001709,-0.007812,1.000732,0.00,0.00,0.00
971,0.091603,0.175573,0.099237,0.000244,-0.014893,0.996094,0.00,0.00,0.00
972,-0.229008,0.007634,0.053435,0.005371,-0.009766,0.992676,0.00,0.00,0.00
973,-0.038168,0.030534,-0.099237,0.000000,-0.005615,1.010010,0.00,0.00,0.00
974,0.068702,0.038168,-0.190840,0.009033,-0.010010,0.998047,0.00,0.00,0.00
975,-0.129771,-0.198473,-0.053435,-0.000732,-0.011719,0.998779,0.00,0.00,0.00
976,0.083969,0.229008,-0.068702,0.006836,-0.007812,0.995850,0.00,0.00,0.00
977,-0.106870,-0.320611,-0.091603,0.005371,-0.005615,0.992676,0.00,0.00,0.00
978,0.236641,-0.160305,0.007634,-0.002686,-0.005127,0.998535,0.00,0.00,0.00
979,0.244275,0.183206,-0.030534,0.010742,-0.005371,1.000244,0.00,0.00,0.00
980,-0.160305,-0.343511,-0.030534,0.002930,-0.007812,0.995850,0.00,0.00,0.00
981,0.061069,0.297710,-0.099237,0.005859,-0.007080,1.001709,0.00,0.00,0.00
982,-0.122137,-0.175573,-0.137405,0.004395,-0.007324,1.000000,0.00,0.00,0.00
983,0.068702,-0.015267,0.022901,0.000488,-0.007568,1.004639,0.00,0.00,0.00
984,0.022901,-0.030534,-0.007634,0.005371,-0.013184,1.001709,0.00,0.00,0.00
985,-0.175573,-0.244275,-0.213740,0.007324,-0.007812,0.997070,0.00,0.00,0.00
986,0.061069,0.122137,-0.236641,-0.003662,-0.007080,1.000488,0.00,0.00,0.00
987,-0.061069,0.076336,0.167939,0.005371,-0.003418,1.001465,0.00,0.00,0.00
988,-0.175573,-0.106870,-0.190840,0.003418,-0.003662,1.003418,0.00,0.00,0.00
989,0.022901,0.167939,-0.068702,0.007080,-0.011963,0.996338,0.00,0.00,0.00
990,-0.152672,-0.274809,-0.083969,0.002197,-0.009277,0.996338,0.00,0.00,0.00
991,0.083969,0.053435,-0.106870,-0.003662,-0.011475,1.000488,0.00,0.00,0.00
992,0.267176,0.152672,0.167939,0.006836,-0.008545,0.988525,0.00,0.00,0.00
993,0.137405,-0.114504,-0.183206,-0.006836,-0.003906,1.006348,0.00,0.00,0.00
994,0.129771,0.251908,0.091603,0.007080,-0.010010,0.990967,0.00,0.00,0.00
995,-0.160305,-0.106870,-0.122137,-0.000732,-0.004883,1.004395,0.00,0.00,0.00
996,0.038168,0.122137,-0.083969,0.001953,-0.008057,1.000488,0.00,0.00,0.00
997,0.030534,0.022901,-0.106870,0.006592,-0.010254,0.998047,0.00,0.00,0.00
998,-0.206107,-0.137405,-0.099237,0.000244,-0.004883,1.003906,0.00,0.00,0.00
999,0.167939,0.290076,0.198473,0.000732,-0.010986,1.005859,0.00,0.00,0.00
1000,-0.007634,-0.320611,-0.015267,-0.002197,-0.001465,0.998291,0.00,0.00,0.00
1001,0.099237,-0.015267,0.099237,0.002686,-0.011230,1.002930,0.00,0.00,0.00
1002,0.007634,-0.076336,-0.083969,-0.003662,-0.010254,0.987305,0.00,0.00,0.00
1003,0.167939,-0.114504,-0.068702,-0.006836,-0.003662,1.006592,0.00,0.00,0.00
1004,0.083969,0.259542,0.045802,0.003662,-0.002686,0.984131,0.00,0.00,0.00
1005,0.022901,-0.122137,-0.015267,0.000488,-0.012451,0.999268,0.00,0.00,0.00
1006,0.015267,0.015267,-0.015267,-0.001709,-0.007080,1.006348,0.00,0.00,0.00
1007,0.091603,0.068702,0.045802,0.011719,-0.014160,0.995117,0.00,0.00,0.00
1008,0.007634,-0.145038,-0.053435,-0.000488,-0.006104,1.005615,0.00,0.00,0.00
1009,0.038168,0.122137,-0.030534,0.004883,-0.014160,1.002930,0.00,0.00,0.00
1010,-0.106870,-0.267176,-0.183206,0.002197,-0.011230,0.990479,0.00,0.00,0.00
1011,0.114504,0.190840,-0.030534,0.000488,-0.011719,1.000488,0.00,0.00,0.00
1012,-0.030534,-0.061069,0.015267,0.001221,-0.010498,0.989746,0.00,0.00,0.00
1013,-0.030534,-0.145038,-0.038168,0.000488,-0.003662,1.006592,0.00,0.00,0.00
1014,0.114504,0.297710,0.122137,0.005859,-0.010742,0.993652,0.00,0.00,0.00
1015,-0.167939,-0.259542,0.114504,0.004395,-0.008057,0.998779,0.00,0.00,0.00
1016,0.137405,-0.045802,-0.122137,-0.000977,-0.008057,1.010254,0.00,0.00,0.00
1017,-0.061069,0.091603,0.099237,0.001465,-0.009033,0.999268,0.00,0.00,0.00
1018,0.022901,-0.160305,-0.022901,0.004883,-0.009521,1.000000,0.00,0.00,0.00
1019,0.007634,0.106870,-0.061069,0.002930,-0.007568,0.984375,0.00,0.00,0.00
1020,-0.137405,-0.068702,-0.213740,-0.000977,-0.002930,1.004150,0.00,0.00,0.00
1021,0.099237,0.183206,0.145038,0.002197,-0.009521,1.000732,0.00,0.00,0.00
1022,0.229008,0.099237,-0.083969,0.009033,-0.012451,1.000000,0.00,0.00,0.00
1023,-0.068702,-0.083969,0.022901,-0.008057,-0.006104,0.998047,0.00,0.00,0.00
1024,0.083969,0.236641,0.022901,0.002441,-0.007812,1.001221,0.00,0.00,0.00
1025,-0.083969,-0.099237,-0.061069,-0.000732,-0.004395,0.998779,0.00,0.00,0.00
1026,0.053435,0.137405,-0.015267,-0.003662,-0.010498,1.010010,0.00,0.00,0.00
1027,0.022901,0.114504,-0.053435,0.005615,-0.009766,0.981689,0.00,0.00,0.00
1028,0.045802,-0.251908,0.015267,0.003174,-0.009766,1.001953,0.00,0.00,0.00
1029,0.267176,0.137405,-0.045802,0.003174,-0.007080,0.999512,0.00,0.00,0.00
1030,-0.198473,-0.221374,-0.091603,0.003662,-0.005127,0.989258,0.00,0.00,0.00
1031,0.045802,0.213740,-0.091603,-0.003662,-0.008789,1.003174,0.00,0.00,0.00
1032,0.000000,0.007634,-0.076336,0.005371,-0.010742,0.988770,0.00,0.00,0.00
1033,-0.244275,-0.213740,0.022901,0.002930,-0.007080,1.003906,0.00,0.00,0.00
1034,0.106870,0.282443,-0.122137,0.002686,-0.008545,0.992432,0.00,0.00,0.00
1035,-0.045802,-0.267176,-0.160305,0.001953,-0.007812,0.999268,0.00,0.00,0.00
1036,0.145038,-0.114504,-0.030534,-0.000244,-0.011719,1.000488,0.00,0.00,0.00
1037,-0.053435,0.061069,-0.015267,0.006836,-0.009277,0.994629,0.00,0.00,0.00
1038,0.030534,-0.282443,-0.061069,-0.003418,-0.006592,1.001465,0.00,0.00,0.00
1039,0.068702,-0.068702,0.045802,-0.001953,-0.006836,1.007568,0.00,0.00,0.00
1040,-0.160305,-0.007634,0.114504,0.001709,-0.012207,0.987549,0.00,0.00,0.00
1041,-0.053435,-0.007634,0.038168,-0.004883,-0.008545,1.013428,0.00,0.00,0.00
1042,-0.061069,0.267176,0.038168,0.000977,-0.004639,0.995117,0.00,0.00,0.00
1043,-0.091603,-0.175573,-0.015267,0.005371,-0.005127,0.999268,0.00,0.00,0.00
1044,0.183206,0.015267,-0.099237,0.003906,-0.003418,0.994629,0.00,0.00,0.00
1045,0.030534,-0.145038,-0.129771,-0.001953,-0.008301,1.003174,0.00,0.00,0.00
1046,0.007634,-0.152672,0.106870,0.006348,-0.006104,1.011230,0.00,0.00,0.00
1047,0.053435,0.076336,-0.030534,0.002930,-0.013672,0.997314,0.00,0.00,0.00
1048,-0.305344,-0.404580,-0.061069,0.003662,-0.007568,1.001953,0.00,0.00,0.00
1049,0.122137,0.320611,-0.106870,0.001709,-0.010498,1.002686,0.00,0.00,0.00
1050,-0.030534,-0.045802,-0.160305,-0.002441,-0.014893,0.988037,0.00,0.00,0.00
1051,-0.053435,-0.244275,-0.022901,0.001709,-0.007812,0.996094,0.00,0.00,0.00
1052,0.297710,0.091603,0.083969,0.004883,-0.014160,1.002441,0.00,0.00,0.00
1053,0.007634,-0.351145,0.015267,-0.001953,-0.005615,1.000000,0.00,0.00,0.00
1054,0.167939,0.198473,-0.145038,0.006348,-0.013184,0.999268,0.00,0.00,0.00
1055,0.022901,-0.122137,0.137405,0.007568,-0.004150,0.990967,0.00,0.00,0.00
1056,0.038168,-0.030534,-0.198473,-0.000488,-0.009521,1.000977,0.00,0.00,0.00
1057,0.183206,0.206107,0.160305,0.005127,-0.014648,1.003418,0.00,0.00,0.00
1058,-0.160305,-0.442748,0.122137,0.001709,-0.010986,1.001221,0.00,0.00,0.00
1059,0.030534,-0.015267,-0.122137,-0.000977,-0.005615,0.999512,0.00,0.00,0.00
1060,-0.068702,-0.106870,-0.061069,0.000244,-0.005859,0.993164,0.00,0.00,0.00
1061,-0.053435,-0.129771,0.022901,-0.003662,-0.006592,1.003174,0.00,0.00,0.00
1062,0.000000,-0.030534,-0.114504,0.007812,-0.007812,0.991699,0.00,0.00,0.00
1063,0.099237,-0.160305,-0.053435,-0.000732,-0.010010,1.006104,0.00,0.00,0.00
1064,0.030534,0.221374,0.015267,0.003418,-0.008301,0.992676,0.00,0.00,0.00
1065,0.076336,0.099237,-0.137405,0.006104,-0.011719,1.002441,0.00,0.00,0.00
1066,0.175573,0.068702,0.091603,-0.001465,-0.004395,1.004150,0.00,0.00,0.00
1067,0.183206,0.343511,0.030534,0.006348,-0.012207,0.999268,0.00,0.00,0.00
1068,-0.053435,-0.022901,-0.030534,0.003906,-0.005859,1.000244,0.00,0.00,0.00
1069,0.022901,0.183206,-0.129771,-0.001221,-0.004150,1.005127,0.00,0.00,0.00
1070,-0.129771,-0.045802,-0.045802,0.002930,-0.004883,0.991211,0.00,0.00,0.00
1071,0.122137,0.160305,-0.175573,0.005127,-0.007080,0.997803,0.00,0.00,0.00
1072,0.175573,0.083969,0.083969,0.008789,-0.006348,1.002197,0.00,0.00,0.00
1073,-0.099237,-0.175573,0.129771,-0.001221,-0.007324,1.002197,0.00,0.00,0.00
1074,0.297710,0.236641,-0.076336,0.004883,-0.007568,1.001221,0.00,0.00,0.00
1075,-0.114504,0.106870,-0.053435,0.002441,-0.009277,0.997803,0.00,0.00,0.00
1076,-0.030534,0.030534,-0.030534,-0.002686,-0.004883,0.998291,0.00,0.00,0.00
1077,0.198473,0.045802,-0.137405,0.007080,-0.012207,0.994385,0.00,0.00,0.00
1078,-0.114504,-0.198473,0.022901,0.000000,-0.006592,0.997559,0.00,0.00,0.00
1079,0.213740,0.160305,-0.022901,0.004639,-0.018311,1.005859,0.00,0.00,0.00
1080,0.061069,-0.122137,0.045802,0.002930,-0.007568,0.994873,0.00,0.00,0.00
1081,0.068702,-0.175573,-0.122137,-0.004150,-0.005127,1.005127,0.00,0.00,0.00
1082,-0.183206,-0.175573,0.030534,0.007568,-0.010254,0.999268,0.00,0.00,0.00
1083,-0.053435,0.061069,0.045802,0.004639,-0.001709,0.993896,0.00,0.00,0.00
1084,0.083969,0.175573,-0.114504,0.005127,-0.006592,0.993896,0.00,0.00,0.00
1085,-0.030534,0.099237,-0.022901,0.002197,-0.006836,0.991943,0.00,0.00,0.00
1086,0.053435,-0.068702,-0.114504,0.000977,-0.010498,1.008545,0.00,0.00,0.00
1087,0.190840,-0.007634,-0.030534,0.000000,-0.011719,0.988281,0.00,0.00,0.00
1088,-0.114504,-0.213740,0.007634,0.012451,-0.012939,0.996338,0.00,0.00,0.00
1089,0.183206,-0.099237,0.007634,0.004395,-0.005859,1.007568,0.00,0.00,0.00
1090,-0.045802,-0.053435,0.038168,0.002441,-0.007812,0.988525,0.00,0.00,0.00
1091,0.015267,-0.099237,0.045802,0.003906,-0.006836,0.995361,0.00,0.00,0.00
1092,0.053435,0.160305,-0.038168,-0.000488,-0.007080,0.997559,0.00,0.00,0.00
1093,-0.007634,-0.007634,-0.099237,0.006592,-0.009033,0.993896,0.00,0.00,0.00
1094,0.030534,-0.053435,-0.083969,0.000488,-0.004883,1.013184,0.00,0.00,0.00
1095,0.114504,0.282443,-0.229008,0.004150,-0.007080,0.996338,0.00,0.00,0.00
1096,-0.053435,-0.213740,-0.152672,-0.002686,0.000000,1.004883,0.00,0.00,0.00
1097,0.053435,0.198473,0.000000,0.002686,-0.004150,0.994873,0.00,0.00,0.00
1098,-0.030534,-0.076336,-0.007634,-0.001221,-0.009033,1.000488,0.00,0.00,0.00
1099,0.122137,-0.076336,0.045802,-0.002197,-0.003662,0.999268,0.00,0.00,0.00
1100,-0.038168,0.061069,-0.175573,0.010010,-0.010254,0.996094,0.00,0.00,0.00
1101,-0.175573,-0.236641,-0.083969,-0.003662,-0.002197,0.997803,0.00,0.00,0.00
1102,0.076336,-0.076336,0.129771,-0.001221,-0.010254,1.001221,0.00,0.00,0.00
1103,0.022901,-0.076336,-0.068702,0.006592,-0.002441,0.995117,0.00,0.00,0.00
1104,0.076336,0.030534,0.030534,-0.000488,-0.004395,1.007324,0.00,0.00,0.00
1105,-0.099237,0.007634,-0.015267,0.000244,-0.008301,0.997314,0.00,0.00,0.00
1106,0.000000,-0.282443,-0.068702,0.000244,-0.005859,0.997803,0.00,0.00,0.00
1107,-0.038168,0.114504,-0.114504,0.002930,-0.007080,0.996338,0.00,0.00,0.00
1108,0.038168,-0.083969,0.053435,0.001709,-0.005859,0.998779,0.00,0.00,0.00
1109,-0.083969,0.030534,0.091603,0.001709,-0.010498,0.999756,0.00,0.00,0.00
1110,-0.099237,0.221374,-0.106870,0.006592,-0.006836,0.989990,0.00,0.00,0.00
1111,0.000000,-0.137405,-0.160305,-0.003906,-0.009521,0.998047,0.00,0.00,0.00
1112,0.145038,0.480916,-0.061069,-0.000977,-0.005127,1.005615,0.00,0.00,0.00
1113,-0.190840,0.000000,-0.198473,0.002686,-0.007080,0.998047,0.00,0.00,0.00
1114,0.015267,0.274809,0.007634,-0.002930,-0.010742,1.004639,0.00,0.00,0.00
1115,-0.007634,0.198473,0.152672,0.005859,-0.011963,0.994629,0.00,0.00,0.00
1116,-0.282443,-0.374046,-0.137405,0.000977,-0.004395,0.998291,0.00,0.00,0.00
1117,-0.053435,0.022901,-0.007634,0.001709,-0.009521,0.988281,0.00,0.00,0.00
1118,-0.045802,-0.190840,-0.091603,0.002686,-0.009033,0.989014,0.00,0.00,0.00
1119,0.007634,-0.122137,-0.175573,-0.006104,-0.007568,0.998047,0.00,0.00,0.00
1120,0.114504,0.198473,0.061069,0.004150,-0.006104,0.990479,0.00,0.00,0.00
1121,-0.122137,-0.221374,-0.038168,0.002930,-0.002441,1.007812,0.00,0.00,0.00
1122,0.145038,0.137405,-0.076336,0.009277,-0.013184,1.008057,0.00,0.00,0.00
1123,-0.236641,-0.427481,-0.229008,0.001221,-0.006348,0.999512,0.00,0.00,0.00
1124,0.091603,-0.198473,-0.076336,-0.001465,-0.006592,0.997559,0.00,0.00,0.00
1125,0.076336,-0.053435,-0.038168,0.001953,-0.012695,0.999268,0.00,0.00,0.00
1126,-0.106870,-0.312977,-0.083969,0.003418,-0.004883,1.003906,0.00,0.00,0.00
1127,0.221374,0.114504,0.045802,0.002930,-0.013184,0.994629,0.00,0.00,0.00
1128,-0.038168,-0.251908,-0.213740,0.004395,-0.012695,0.995117,0.00,0.00,0.00
1129,-0.007634,-0.290076,-0.274809,0.003662,-0.006348,0.999268,0.00,0.00,0.00
1130,-0.129771,-0.358779,-0.885496,0.000244,-0.014404,0.994629,0.00,0.00,0.00
1131,-0.206107,-2.244275,-5.702290,-0.017334,-0.038574,1.010254,0.00,0.00,0.00
1132,0.480916,0.106870,-10.725191,0.005615,-0.013428,0.986816,0.00,0.00,0.00
1133,-0.030534,-0.885496,-6.297710,0.005371,0.020264,0.995605,0.00,0.00,0.00
1134,0.045802,-0.190840,-0.702290,0.011963,0.012939,1.004150,0.00,0.00,0.00
1135,-0.198473,-0.137405,-0.007634,0.006348,-0.013672,0.987793,0.00,0.00,0.00
1136,-0.053435,-0.076336,-0.198473,-0.000732,-0.008057,0.999268,0.00,0.00,0.00
1137,0.137405,-0.091603,-0.412214,-0.001953,-0.008301,0.989502,0.00,0.00,0.00
1138,-0.297710,-0.877863,-1.458015,0.001221,-0.015869,1.005127,0.00,0.00,0.00
1139,0.022901,-0.496183,-3.442748,-0.011719,-0.015625,0.999756,0.00,0.00,0.00
1140,0.083969,0.045802,-3.389313,0.007812,-0.007568,0.990723,0.00,0.00,0.00
1141,-0.068702,-0.488550,-2.259542,0.007568,-0.000977,0.987061,0.00,0.00,0.00
1142,0.305344,0.160305,-0.687023,0.005615,-0.006592,1.008057,0.00,0.00,0.00
1143,-0.015267,-0.122137,-0.450382,0.002686,-0.006348,0.994141,0.00,0.00,0.00
1144,0.053435,-0.190840,-0.435115,-0.002441,-0.009277,1.006592,0.00,0.00,0.00
1145,0.160305,-0.129771,-0.458015,0.016357,-0.004883,0.998047,0.00,0.00,0.00
1146,-0.099237,-0.816794,-0.824427,0.000488,-0.000977,1.000000,0.00,0.00,0.00
1147,-0.038168,-0.503817,-0.969466,0.004639,-0.007812,1.000732,0.00,0.00,0.00
1148,-0.282443,-1.030534,-1.320611,0.003174,-0.014893,0.992920,0.00,0.00,0.00
1149,0.167939,-1.198473,-1.977099,-0.000977,-0.010742,0.997559,0.00,0.00,0.00
1150,0.083969,-1.045802,-4.488550,-0.011719,-0.038818,0.993408,0.00,0.00,0.00
1151,0.000000,-0.427481,-8.679389,-0.020264,-0.051514,0.983398,0.00,0.00,0.00
1152,0.160305,-0.061069,-10.000000,-0.020508,-0.038330,0.999268,0.00,0.00,0.00
1153,0.167939,-0.396947,-8.969466,-0.006592,-0.004639,0.984375,0.00,0.00,0.00
1154,-0.030534,-0.832061,-6.267176,0.011963,0.024902,1.010498,0.00,0.00,0.00
1155,0.030534,-0.763359,-4.809160,0.014893,0.020752,0.998779,0.00,0.00,0.00
1156,0.083969,-0.931298,-3.175573,0.015869,0.008545,0.992676,0.00,0.00,0.00
1157,-0.091603,-0.709924,-2.274809,0.019531,0.010986,0.991943,0.00,0.00,0.00
1158,-0.137405,-0.549618,-1.916031,0.013184,-0.008057,1.006104,0.00,0.00,0.00
1159,0.007634,-0.511450,-2.076336,0.000488,-0.012451,1.004150,0.00,0.00,0.00
1160,0.251908,0.099237,-3.137405,-0.013184,-0.029541,0.997559,0.00,0.00,0.00
1161,0.076336,-0.053435,-5.175573,-0.026611,-0.037842,0.997559,0.00,0.00,0.00
1162,0.175573,0.526718,-7.961832,-0.024170,-0.039795,1.002686,0.00,0.00,0.00
1163,0.114504,0.251908,-11.343511,-0.044434,-0.044434,0.996582,0.00,0.00,0.00
1164,0.618321,1.832061,-13.679389,-0.018066,-0.027100,0.998291,0.00,0.00,0.00
1165,0.679389,1.236641,-16.053435,-0.010986,-0.024414,1.004639,0.00,0.00,0.00
1166,0.442748,1.702290,-17.206107,0.024170,-0.001709,0.999756,0.00,0.00,0.00
1167,0.221374,0.656489,-17.290076,0.023438,0.001465,1.014160,0.00,0.00,0.00
1168,0.221374,1.664122,-17.038168,0.025635,0.004883,1.000488,0.00,0.00,0.00
1169,0.236641,1.381679,-16.839695,0.039307,0.010254,1.003662,0.00,0.00,0.00
1170,0.916031,2.122137,-15.236641,0.063477,0.032227,0.992920,0.00,0.00,0.00
1171,0.030534,0.290076,-11.603053,0.034424,0.024902,1.001221,0.00,0.00,0.00
1172,0.076336,0.305344,-9.465649,0.034180,0.013428,1.012451,0.00,0.00,0.00
1173,0.297710,0.938931,-8.473282,0.009521,-0.009033,0.999023,0.00,0.00,0.00
1174,0.076336,0.282443,-9.290076,-0.005615,-0.012207,1.007324,0.00,0.00,0.00
1175,0.274809,0.709924,-12.007634,0.003418,-0.031006,0.986084,0.00,0.00,0.00
1176,0.503817,0.862595,-15.129771,-0.003662,-0.018555,0.997559,0.00,0.00,0.00
1177,0.511450,0.534351,-17.511450,-0.004639,-0.019531,0.989258,0.00,0.00,0.00
1178,0.175573,0.564885,-18.335878,-0.002441,-0.013916,1.004150,0.00,0.00,0.00
1179,0.015267,-0.122137,-17.213740,-0.002441,0.000732,1.011719,0.00,0.00,0.00
1180,0.419847,-0.068702,-14.687023,0.008545,0.005859,0.995361,0.00,0.00,0.00
1181,0.213740,-0.633588,-12.221374,0.011475,0.006592,0.997559,0.00,0.00,0.00
1182,0.022901,-0.106870,-8.396947,0.010498,0.017090,1.003906,0.00,0.00,0.00
1183,0.061069,-0.229008,-5.603053,0.006348,0.007080,0.988770,0.00,0.00,0.00
1184,-0.007634,-0.511450,-3.832061,0.000732,0.005859,1.001709,0.00,0.00,0.00
1185,0.099237,-0.053435,-2.709924,0.009033,0.002930,1.003418,0.00,0.00,0.00
1186,-0.091603,-0.404580,-1.709924,0.005859,-0.001465,0.997803,0.00,0.00,0.00
1187,0.152672,-0.099237,-1.114504,0.005859,-0.004395,1.000488,0.00,0.00,0.00
1188,0.061069,0.045802,-0.366412,0.007812,-0.001709,0.995850,0.00,0.00,0.00
1189,-0.190840,-0.175573,-0.015267,0.002930,0.001465,0.986328,0.00,0.00,0.00
1190,0.175573,0.267176,-0.030534,0.009033,-0.010742,0.990967,0.00,0.00,0.00
1191,-0.106870,0.312977,0.022901,0.005859,-0.006836,0.996582,0.00,0.00,0.00
1192,0.007634,0.465649,0.061069,0.000732,-0.003418,1.009521,0.00,0.00,0.00
1193,0.251908,0.633588,-0.068702,0.008057,-0.009033,1.001465,0.00,0.00,0.00
1194,-0.145038,-0.007634,0.053435,0.007812,-0.007324,1.005615,0.00,0.00,0.00
1195,0.152672,0.534351,-0.030534,0.008057,-0.010986,0.998779,0.00,0.00,0.00
1196,-0.068702,0.473282,-0.129771,0.009033,-0.009766,0.992920,0.00,0.00,0.00
1197,0.030534,0.458015,-0.061069,-0.001221,-0.002930,0.998047,0.00,0.00,0.00
1198,0.251908,0.519084,0.122137,0.005859,-0.008789,0.991211,0.00,0.00,0.00
1199,0.244275,0.503817,0.038168,0.005127,-0.006348,0.999756,0.00,0.00,0.00
1200,0.343511,1.267176,0.061069,0.007812,-0.009766,1.000977,0.00,0.00,0.00
1201,0.145038,0.938931,0.015267,0.004150,-0.002197,0.989990,0.00,0.00,0.00
1202,0.030534,0.244275,-1.038168,0.013184,-0.007324,1.009521,0.00,0.00,0.00
1203,-0.229008,-0.541985,-8.748092,0.061035,-0.040771,0.993896,0.00,0.00,0.00
1204,0.045802,0.603053,-17.045802,0.055908,-0.031250,1.000977,0.00,0.00,0.00
1205,0.847328,0.595420,-20.931298,0.014648,-0.026855,0.999268,0.00,0.00,0.00
1206,0.274809,-0.412214,-21.335878,-0.027832,-0.018555,0.994385,0.00,0.00,0.00
1207,0.572519,0.480916,-20.534351,-0.081299,0.002197,1.005127,0.00,0.00,0.00
1208,0.366412,0.068702,-18.183206,-0.079102,0.008301,0.994873,0.00,0.00,0.00
1209,-0.198473,-0.580153,-13.259542,0.020752,0.015381,0.985107,0.00,0.00,0.00
1210,0.099237,-0.274809,-9.534351,0.004639,0.004395,1.006104,0.00,0.00,0.00
1211,-0.129771,-0.541985,-7.419847,0.012451,0.000244,0.990479,0.00,0.00,0.00
1212,-0.007634,-0.717557,-5.572519,-0.000732,0.000000,1.001953,0.00,0.00,0.00
1213,0.030534,-0.358779,-5.076336,0.010742,-0.006348,0.993896,0.00,0.00,0.00
1214,-0.122137,-0.511450,-4.526718,0.000488,-0.008301,0.999756,0.00,0.00,0.00
1215,0.221374,-0.160305,-3.396947,-0.003906,-0.001709,0.991455,0.00,0.00,0.00
1216,-0.312977,-0.343511,-2.572519,0.006592,-0.013428,0.988525,0.00,0.00,0.00
1217,0.267176,0.160305,-1.740458,0.000488,-0.005127,1.004150,0.00,0.00,0.00
1218,-0.045802,0.290076,-1.091603,0.015625,-0.014893,0.996094,0.00,0.00,0.00
1219,0.137405,-0.083969,-0.229008,0.002930,-0.009766,0.998291,0.00,0.00,0.00
1220,0.061069,0.091603,0.045802,0.001465,-0.004639,1.003662,0.00,0.00,0.00
1221,0.007634,0.251908,0.038168,0.003418,-0.011719,0.994385,0.00,0.00,0.00
1222,0.053435,0.061069,0.022901,-0.001221,-0.011230,0.998291,0.00,0.00,0.00
1223,-0.022901,-0.083969,-0.190840,0.002930,-0.011719,0.993408,0.00,0.00,0.00
1224,-0.045802,-0.282443,-0.030534,0.000000,-0.010254,0.997070,0.00,0.00,0.00
1225,0.114504,0.015267,0.015267,0.009521,-0.007568,1.000488,0.00,0.00,0.00
1226,-0.236641,-0.351145,-0.129771,0.007568,-0.010254,0.989990,0.00,0.00,0.00
1227,-0.015267,-0.473282,0.053435,0.001221,-0.011475,1.008301,0.00,0.00,0.00
1228,0.083969,-0.167939,-0.076336,0.007080,-0.012207,0.992920,0.00,0.00,0.00
1229,-0.061069,-0.458015,0.076336,0.001709,-0.005371,1.003418,0.00,0.00,0.00
1230,-0.015267,0.000000,-0.083969,0.000488,-0.003906,0.992920,0.00,0.00,0.00
1231,-0.038168,-0.183206,0.000000,0.007812,-0.008057,0.996826,0.00,0.00,0.00
1232,-0.022901,-0.137405,-0.053435,0.003418,-0.010742,1.004883,0.00,0.00,0.00
1233,-0.053435,0.122137,0.045802,0.004395,-0.001709,0.991943,0.00,0.00,0.00
1234,-0.068702,-0.030534,0.007634,0.002930,-0.010742,0.992676,0.00,0.00,0.00
1235,0.175573,0.259542,-0.099237,0.003418,-0.005127,0.995605,0.00,0.00,0.00
1236,-0.030534,0.038168,-0.053435,0.014648,-0.007568,0.994141,0.00,0.00,0.00
1237,0.038168,0.137405,-0.083969,-0.003906,-0.010498,1.007812,0.00,0.00,0.00
1238,0.213740,0.648855,-0.022901,0.004150,-0.005127,0.998291,0.00,0.00,0.00
1239,0.038168,0.152672,-0.038168,0.001221,-0.006836,0.994873,0.00,0.00,0.00
1240,0.427481,0.526718,-0.198473,-0.006836,-0.005371,0.994385,0.00,0.00,0.00
1241,0.290076,0.656489,-0.106870,0.000488,-0.002441,0.994629,0.00,0.00,0.00
1242,-0.030534,0.381679,-0.007634,0.005615,-0.006592,0.996338,0.00,0.00,0.00
1243,0.274809,0.557252,0.007634,0.008301,-0.018311,1.000488,0.00,0.00,0.00
1244,0.267176,0.374046,0.053435,0.005859,-0.007080,1.000244,0.00,0.00,0.00
1245,-0.030534,0.442748,-0.145038,0.007568,-0.001709,1.002197,0.00,0.00,0.00
1246,0.213740,0.648855,-0.106870,0.010498,-0.007324,0.998047,0.00,0.00,0.00
1247,-0.022901,0.198473,-0.068702,0.009033,-0.005859,0.988281,0.00,0.00,0.00
1248,0.236641,0.419847,0.022901,0.005127,-0.010010,1.002930,0.00,0.00,0.00
1249,0.015267,0.007634,-0.045802,0.001709,0.000977,1.002441,0.00,0.00,0.00
1250,0.175573,0.290076,-0.099237,0.003662,-0.006592,0.996094,0.00,0.00,0.00
1251,0.007634,0.229008,-0.137405,0.009277,-0.010010,0.998535,0.00,0.00,0.00
1252,0.000000,-0.030534,-0.206107,-0.000732,-0.005615,0.998535,0.00,0.00,0.00
1253,0.061069,0.083969,-0.068702,0.006592,-0.012451,0.997314,0.00,0.00,0.00
1254,-0.114504,0.022901,0.007634,-0.003662,-0.003662,1.004639,0.00,0.00,0.00
1255,0.000000,0.061069,-0.083969,0.000000,-0.007080,0.995361,0.00,0.00,0.00
1256,0.061069,0.106870,0.015267,0.004883,-0.012939,0.996338,0.00,0.00,0.00
1257,0.038168,0.099237,0.007634,-0.001221,-0.002686,0.999023,0.00,0.00,0.00
1258,0.236641,0.328244,0.114504,0.010254,-0.010010,0.994873,0.00,0.00,0.00
1259,0.091603,-0.129771,-0.045802,0.003174,-0.007080,0.996826,0.00,0.00,0.00
1260,0.312977,0.099237,-0.122137,0.000977,-0.003906,0.990479,0.00,0.00,0.00
1261,-0.030534,0.305344,0.007634,0.005615,-0.007080,0.993652,0.00,0.00,0.00
1262,-0.007634,0.045802,-0.053435,0.001709,-0.016357,0.997314,0.00,0.00,0.00
1263,0.015267,0.229008,-0.015267,0.003418,-0.009766,0.998047,0.00,0.00,0.00
1264,0.091603,0.198473,0.068702,0.003418,-0.009521,0.995117,0.00,0.00,0.00
1265,-0.076336,0.290076,0.007634,0.002930,-0.004150,0.996826,0.00,0.00,0.00
1266,0.061069,0.358779,0.015267,0.002441,-0.007568,0.990234,0.00,0.00,0.00
1267,-0.083969,0.145038,-0.038168,0.005127,-0.007324,0.998779,0.00,0.00,0.00
1268,0.267176,0.229008,0.022901,0.002441,-0.007812,1.000000,0.00,0.00,0.00
1269,0.183206,0.244275,-0.045802,0.000977,-0.009766,1.001709,0.00,0.00,0.00
1270,0.015267,0.007634,-0.045802,-0.001709,0.000488,1.000977,0.00,0.00,0.00
1271,0.519084,1.045802,-0.145038,0.009766,-0.008789,1.001709,0.00,0.00,0.00
1272,-0.068702,0.305344,0.038168,-0.002441,-0.010010,0.995605,0.00,0.00,0.00
1273,-0.587786,-1.343511,-0.190840,0.002197,0.001465,1.022217,0.00,0.00,0.00
1274,-0.335878,-1.450382,-0.152672,-0.000977,-0.012695,0.987061,0.00,0.00,0.00
1275,-0.244275,-1.396947,-1.076336,-0.036621,-0.003418,1.005615,0.00,0.00,0.00
1276,-0.351145,-1.534351,-5.709924,-0.168457,-0.060791,0.991943,0.00,0.00,0.00
1277,0.061069,-0.641221,-18.465649,-0.315430,-0.030518,0.996094,0.00,0.00,0.00
1278,0.725191,0.267176,-27.847328,-0.337158,-0.042480,0.991943,0.00,0.00,0.00
1279,-0.122137,1.740458,-34.320611,-0.099365,-0.006592,1.023193,0.00,0.00,0.00
1280,-0.587786,3.358779,-33.900763,0.134766,0.029785,1.030029,0.00,0.00,0.00
1281,-3.671756,5.679389,-24.648855,0.266846,0.007324,1.080566,0.00,0.00,0.00
1282,-8.954198,8.656489,-12.763359,0.255371,-0.008789,1.157959,0.00,0.00,0.00
1283,-15.381679,12.175573,-3.038168,0.187012,-0.035645,1.199463,0.00,0.00,0.00
1284,-24.045802,17.740458,5.297710,0.121826,-0.013428,1.239258,0.00,0.00,0.00
1285,-34.442748,21.206107,9.557252,0.031738,0.047363,1.235596,0.00,0.00,0.00
1286,-41.847328,26.671756,7.595420,-0.008057,0.106445,1.194580,0.00,0.00,0.00
1287,-46.870229,31.328244,0.633588,-0.096924,0.116699,1.151123,0.00,0.00,0.00
1288,-45.206107,60.000000,-21.809160,-0.209229,0.088379,1.069824,0.00,0.00,0.00
1289,-46.564885,49.908397,-36.419847,-0.273682,0.204590,1.024658,0.00,0.00,0.00
1290,-47.526718,46.358779,-53.992366,-0.258301,0.215820,1.042236,0.00,0.00,0.00
1291,-47.618321,40.473282,-78.114504,-0.255859,0.129395,1.007568,0.00,0.00,0.00
1292,-49.763359,34.381679,-101.297710,-0.200684,0.030273,1.066895,0.00,0.00,0.00
1293,-52.862595,30.221374,-118.091603,-0.093506,0.020996,1.126221,0.00,0.00,0.00
1294,-56.854962,27.984733,-128.335878,0.047607,0.067627,1.159424,0.00,0.00,0.00
1295,-57.648855,29.511450,-134.213740,0.189209,0.029785,1.121338,0.00,0.00,0.00
1296,-51.015267,12.938931,-134.877863,0.095215,-0.088623,1.133545,0.00,0.00,0.00
1297,-42.496183,-13.366412,-133.755725,0.009277,-0.155518,1.159668,0.00,0.00,0.00
1298,-32.091603,-42.519084,-132.374046,-0.010498,-0.188965,1.195557,0.00,0.00,0.00
1299,-22.587786,-64.885496,-127.389313,0.052734,-0.208008,1.279053,0.00,0.00,0.00
1300,-16.343511,-72.816794,-120.076336,0.151611,-0.202148,1.350098,0.00,0.00,0.00
1301,-13.572519,-71.328244,-110.450382,0.236572,-0.189209,1.470215,0.00,0.00,0.00
1302,-16.839695,-62.519084,-102.664122,0.288818,-0.190430,1.545166,0.00,0.00,0.00
1303,-23.778626,-53.923664,-96.381679,0.322998,-0.201172,1.606689,0.00,0.00,0.00
1304,-32.816794,-50.954198,-90.633588,0.339844,-0.194336,1.610352,0.00,0.00,0.00
1305,-42.328244,-55.152672,-84.740458,0.362549,-0.166260,1.600342,0.00,0.00,0.00
1306,-51.122137,-64.015267,-77.175573,0.382080,-0.120850,1.527344,0.00,0.00,0.00
1307,-58.549618,-74.206107,-67.580153,0.402588,-0.091797,1.445801,0.00,0.00,0.00
1308,-63.083969,-80.862595,-57.587786,0.438477,-0.067383,1.406250,0.00,0.00,0.00
1309,-67.946565,-82.061069,-43.251908,0.496582,-0.096680,1.367432,0.00,0.00,0.00
1310,-70.435115,-76.503817,-28.274809,0.529785,-0.131348,1.332520,0.00,0.00,0.00
1311,-71.122137,-64.732824,-14.068702,0.538818,-0.180420,1.333252,0.00,0.00,0.00
1312,-70.488550,-49.694656,-0.832061,0.514160,-0.216064,1.330811,0.00,0.00,0.00
1313,-69.022901,-36.648855,10.893130,0.460449,-0.234619,1.302490,0.00,0.00,0.00
1314,-66.908397,-28.381679,22.083969,0.402832,-0.232422,1.289551,0.00,0.00,0.00
1315,-64.557252,-25.167939,30.984733,0.314697,-0.198730,1.278320,0.00,0.00,0.00
1316,-62.839695,-22.374046,36.893130,0.259277,-0.149658,1.240234,0.00,0.00,0.00
1317,-62.801527,-19.931298,38.580153,0.228027,-0.118652,1.224365,0.00,0.00,0.00
1318,-63.145038,-14.641221,37.854962,0.207764,-0.088867,1.196045,0.00,0.00,0.00
1319,-63.763359,-7.465649,35.992366,0.211914,-0.066162,1.153320,0.00,0.00,0.00
1320,-63.572519,-0.274809,34.908397,0.239014,-0.068359,1.101562,0.00,0.00,0.00
1321,-61.603053,9.740458,35.839695,0.282715,-0.081055,1.075928,0.00,0.00,0.00
1322,-59.694656,17.854962,38.603053,0.293457,-0.096924,1.052979,0.00,0.00,0.00
1323,-56.816794,27.900763,42.564885,0.312256,-0.104248,1.030762,0.00,0.00,0.00
1324,-53.557252,40.320611,46.633588,0.318604,-0.114746,1.018066,0.00,0.00,0.00
1325,-51.595420,50.732824,48.694656,0.325439,-0.109131,1.020264,0.00,0.00,0.00
1326,-49.862595,65.000000,49.106870,0.317871,-0.143555,1.027588,0.00,0.00,0.00
1327,-48.625954,77.374046,47.900763,0.276123,-0.178467,1.024902,0.00,0.00,0.00
1328,-46.923664,83.404580,45.709924,0.241211,-0.204590,1.005371,0.00,0.00,0.00
1329,-43.961832,83.320611,43.091603,0.205322,-0.222168,0.995850,0.00,0.00,0.00
1330,-40.572519,76.381679,39.687023,0.164307,-0.229248,0.975586,0.00,0.00,0.00
1331,-37.610687,67.366412,36.603053,0.148193,-0.233643,0.954102,0.00,0.00,0.00
1332,-34.427481,52.725191,33.816794,0.102539,-0.203857,0.841309,0.00,0.00,0.00
1333,-27.045802,39.083969,31.725191,0.130127,-0.166992,0.769043,0.00,0.00,0.00
1334,-23.106870,35.763359,30.030534,0.152588,-0.170898,0.802002,0.00,0.00,0.00
1335,-20.511450,36.946565,29.702290,0.206543,-0.195557,0.843750,0.00,0.00,0.00
1336,-21.099237,39.862595,31.717557,0.224609,-0.204834,0.883789,0.00,0.00,0.00
1337,-21.534351,40.412214,35.610687,0.222656,-0.221924,0.875732,0.00,0.00,0.00
1338,-22.564885,36.022901,40.862595,0.197266,-0.229980,0.859863,0.00,0.00,0.00
1339,-23.458015,29.625954,46.458015,0.178223,-0.225098,0.822021,0.00,0.00,0.00
1340,-24.961832,23.702290,52.465649,0.154053,-0.202881,0.798584,0.00,0.00,0.00
1341,-27.076336,21.038168,57.122137,0.113770,-0.179199,0.772461,0.00,0.00,0.00
1342,-29.465649,18.312977,59.961832,0.070801,-0.166748,0.757812,0.00,0.00,0.00
1343,-32.290076,16.664122,60.389313,0.043945,-0.167969,0.754639,0.00,0.00,0.00
1344,-34.549618,15.290076,58.923664,0.014404,-0.180908,0.728760,0.00,0.00,0.00
1345,-35.282443,14.702290,56.435115,-0.008301,-0.209473,0.697266,0.00,0.00,0.00
1346,-34.015267,12.832061,55.900763,-0.018311,-0.217041,0.681885,0.00,0.00,0.00
1347,-31.465649,11.870229,56.045802,-0.024414,-0.225098,0.676270,0.00,0.00,0.00
1348,-29.106870,10.770992,56.755725,-0.038574,-0.241211,0.690430,0.00,0.00,0.00
1349,-27.366412,10.938931,57.488550,-0.033936,-0.233398,0.708496,0.00,0.00,0.00
1350,-27.061069,14.122137,57.519084,-0.050537,-0.223877,0.709717,0.00,0.00,0.00
1351,-27.458015,16.511450,56.816794,-0.074463,-0.217285,0.719727,0.00,0.00,0.00
1352,-27.755725,19.984733,57.015267,-0.064209,-0.200928,0.719971,0.00,0.00,0.00
1353,-29.038168,22.778626,57.740458,-0.075928,-0.190186,0.711914,0.00,0.00,0.00
1354,-30.083969,24.572519,58.709924,-0.078125,-0.208984,0.680420,0.00,0.00,0.00
1355,-31.259542,24.038168,60.351145,-0.072510,-0.205322,0.644531,0.00,0.00,0.00
1356,-31.267176,21.480916,62.435115,-0.083984,-0.175049,0.620605,0.00,0.00,0.00
1357,-29.893130,19.152672,64.343511,-0.116455,-0.141357,0.568848,0.00,0.00,0.00
1358,-27.618321,17.732824,66.656489,-0.112061,-0.133789,0.532959,0.00,0.00,0.00
1359,-25.152672,17.251908,67.969466,-0.125000,-0.136963,0.520508,0.00,0.00,0.00
1360,-21.763359,15.534351,69.297710,-0.167480,-0.127930,0.472412,0.00,0.00,0.00
1361,-15.145038,14.267176,69.503817,-0.186035,-0.131592,0.440430,0.00,0.00,0.00
1362,-7.778626,15.145038,69.175573,-0.187012,-0.137695,0.399658,0.00,0.00,0.00
1363,0.671756,17.595420,69.053435,-0.187988,-0.136230,0.396484,0.00,0.00,0.00
1364,9.106870,21.022901,68.839695,-0.202637,-0.140137,0.405029,0.00,0.00,0.00
1365,17.068702,23.236641,68.030534,-0.216797,-0.156250,0.412842,0.00,0.00,0.00
1366,23.595420,22.984733,67.190840,-0.232178,-0.166748,0.427734,0.00,0.00,0.00
1367,29.618321,20.190840,66.786260,-0.247314,-0.175293,0.434326,0.00,0.00,0.00
1368,33.381679,17.312977,66.137405,-0.241455,-0.171387,0.446289,0.00,0.00,0.00
1369,37.190840,15.450382,65.122137,-0.248779,-0.162354,0.462891,0.00,0.00,0.00
1370,39.778626,15.519084,63.488550,-0.263916,-0.156006,0.488281,0.00,0.00,0.00
1371,41.503817,16.412214,61.305344,-0.281494,-0.141602,0.510498,0.00,0.00,0.00
1372,42.908397,16.526718,59.236641,-0.326660,-0.136230,0.546143,0.00,0.00,0.00
1373,43.251908,15.427481,56.572519,-0.349365,-0.146973,0.579590,0.00,0.00,0.00
1374,43.549618,14.610687,52.977099,-0.369385,-0.158447,0.607178,0.00,0.00,0.00
1375,43.305344,14.381679,49.015267,-0.357178,-0.173584,0.657227,0.00,0.00,0.00
1376,42.770992,14.511450,46.190840,-0.338623,-0.177979,0.658447,0.00,0.00,0.00
1377,42.541985,15.732824,42.770992,-0.307373,-0.176025,0.642822,0.00,0.00,0.00
1378,42.656489,17.511450,40.580153,-0.292969,-0.148193,0.636230,0.00,0.00,0.00
1379,43.526718,17.496183,38.770992,-0.302490,-0.114990,0.610107,0.00,0.00,0.00
1380,45.167939,14.977099,36.305344,-0.350342,-0.080078,0.607178,0.00,0.00,0.00
1381,47.206107,9.595420,31.687023,-0.394287,-0.074707,0.604736,0.00,0.00,0.00
1382,49.099237,3.625954,26.717557,-0.424072,-0.065674,0.614990,0.00,0.00,0.00
1383,50.969466,-2.862595,21.847328,-0.416504,-0.061279,0.657227,0.00,0.00,0.00
1384,52.458015,-7.671756,18.351145,-0.365479,-0.066162,0.697998,0.00,0.00,0.00
1385,53.511450,-9.564885,17.312977,-0.321777,-0.083984,0.727539,0.00,0.00,0.00
1386,54.702290,-9.244275,17.198473,-0.247803,-0.114502,0.757080,0.00,0.00,0.00
1387,54.862595,-6.778626,18.442748,-0.194580,-0.132324,0.769287,0.00,0.00,0.00
1388,56.114504,-4.938931,20.083969,-0.169434,-0.177246,0.780273,0.00,0.00,0.00
1389,57.038168,-5.099237,21.022901,-0.168701,-0.176270,0.791748,0.00,0.00,0.00
1390,58.198473,-6.717557,21.213740,-0.180664,-0.172119,0.800537,0.00,0.00,0.00
1391,59.877863,-10.259542,19.022901,-0.226318,-0.159180,0.794922,0.00,0.00,0.00
1392,61.465649,-17.083969,14.725191,-0.257080,-0.130859,0.758545,0.00,0.00,0.00
1393,63.381679,-23.145038,9.274809,-0.266602,-0.096191,0.754395,0.00,0.00,0.00
1394,65.381679,-28.114504,5.122137,-0.250977,-0.072266,0.774414,0.00,0.00,0.00
1395,66.587786,-32.022901,1.847328,-0.237549,-0.071289,0.791260,0.00,0.00,0.00
1396,66.656489,-34.183206,0.145038,-0.206299,-0.079346,0.827148,0.00,0.00,0.00
1397,66.610687,-30.900763,0.740458,-0.158691,-0.089355,0.845215,0.00,0.00,0.00
1398,67.297710,-25.190840,4.007634,-0.116943,-0.104980,0.862305,0.00,0.00,0.00
1399,67.961832,-21.083969,8.312977,-0.096191,-0.146484,0.862061,0.00,0.00,0.00
1400,68.854962,-21.068702,11.664122,-0.110107,-0.155273,0.857178,0.00,0.00,0.00
1401,69.610687,-25.885496,13.450382,-0.132080,-0.141602,0.840576,0.00,0.00,0.00
1402,70.519084,-29.076336,14.122137,-0.162598,-0.114746,0.861084,0.00,0.00,0.00
1403,72.106870,-28.702290,15.091603,-0.167725,-0.087646,0.898682,0.00,0.00,0.00
1404,72.152672,-27.603053,18.618321,-0.164551,-0.078857,0.944580,0.00,0.00,0.00
1405,71.076336,-29.641221,23.145038,-0.168945,-0.079834,0.976807,0.00,0.00,0.00
1406,68.412214,-30.328244,27.679389,-0.175293,-0.065430,1.004639,0.00,0.00,0.00
1407,62.351145,-34.320611,30.725191,-0.204834,0.010498,1.004883,0.00,0.00,0.00
1408,49.137405,-55.946565,28.160305,-0.308350,0.124023,1.018799,0.00,0.00,0.00
1409,27.114504,-65.328244,21.419847,-0.276123,0.203613,1.096924,0.00,0.00,0.00
1410,8.274809,-67.427481,16.396947,-0.247070,0.241943,1.138672,0.00,0.00,0.00
1411,-15.793893,-64.122137,13.633588,-0.204590,0.201904,1.193848,0.00,0.00,0.00
1412,-39.717557,-70.671756,15.251908,-0.230957,0.140625,1.212158,0.00,0.00,0.00
1413,-61.106870,-83.320611,18.267176,-0.251953,0.069580,1.229248,0.00,0.00,0.00
1414,-76.648855,-88.358779,20.610687,-0.262939,0.008545,1.250000,0.00,0.00,0.00
1415,-89.389313,-87.488550,21.389313,-0.252441,-0.036621,1.246826,0.00,0.00,0.00
1416,-95.000000,-83.603053,19.938931,-0.194580,-0.071289,1.180176,0.00,0.00,0.00
1417,-101.396947,-76.648855,17.801527,-0.164307,-0.087646,1.140137,0.00,0.00,0.00
1418,-104.824427,-78.717557,14.412214,-0.131836,-0.102051,1.054932,0.00,0.00,0.00
1419,-110.175573,-84.595420,12.152672,-0.101074,-0.091064,1.029053,0.00,0.00,0.00
1420,-116.908397,-95.251908,10.229008,-0.037354,-0.079346,1.001465,0.00,0.00,0.00
1421,-123.740458,-91.099237,8.442748,0.055420,-0.112549,1.041992,0.00,0.00,0.00
1422,-129.435115,-75.893130,5.786260,0.122559,-0.137207,1.082031,0.00,0.00,0.00
1423,-134.679389,-57.931298,2.770992,0.141113,-0.209717,1.103271,0.00,0.00,0.00
1424,-138.580153,-46.496183,0.290076,0.120361,-0.290039,1.134766,0.00,0.00,0.00
1425,-143.648855,-45.358779,1.480916,0.025879,-0.267822,1.164551,0.00,0.00,0.00
1426,-145.465649,-52.564885,7.022901,-0.017822,-0.220703,1.118164,0.00,0.00,0.00
1427,-147.274809,-60.427481,11.816794,-0.010986,-0.189697,1.100830,0.00,0.00,0.00
1428,-149.809160,-66.603053,16.931298,0.060303,-0.187012,1.073730,0.00,0.00,0.00
1429,-155.488550,-74.839695,19.938931,0.125977,-0.177734,1.038818,0.00,0.00,0.00
1430,-160.557252,-76.541985,20.083969,0.166016,-0.187744,0.947510,0.00,0.00,0.00
1431,-162.618321,-74.381679,18.885496,0.174072,-0.159424,0.899414,0.00,0.00,0.00
1432,-164.572519,-67.893130,15.290076,0.110352,-0.124268,0.915527,0.00,0.00,0.00
1433,-163.648855,-59.893130,8.938931,0.004639,-0.127441,0.937256,0.00,0.00,0.00
1434,-161.557252,-55.526718,-0.458015,-0.128662,-0.140381,0.943359,0.00,0.00,0.00
1435,-159.030534,-58.374046,-10.488550,-0.207520,-0.119141,0.959961,0.00,0.00,0.00
1436,-155.366412,-64.206107,-17.030534,-0.232178,-0.120850,0.938965,0.00,0.00,0.00
1437,-153.648855,-67.083969,-20.656489,-0.161865,-0.107910,0.983643,0.00,0.00,0.00
1438,-150.061069,-66.419847,-22.412214,-0.064697,-0.134521,0.972412,0.00,0.00,0.00
1439,-145.923664,-57.030534,-23.335878,0.062500,-0.219238,0.927246,0.00,0.00,0.00
1440,-145.175573,-49.969466,-21.603053,0.122803,-0.299561,0.926270,0.00,0.00,0.00
1441,-144.923664,-49.961832,-19.290076,0.204346,-0.408447,0.928711,0.00,0.00,0.00
1442,213.603053,230.229008,54.267176,-1.502441,0.091553,-1.498047,0.00,0.00,0.00
1443,250.129771,149.427481,73.511450,-1.455078,-0.930176,-1.094727,0.00,0.00,0.00
1444,250.129771,13.267176,22.526718,-1.362305,-0.070557,-0.153076,0.00,0.00,0.00
1445,250.129771,4.068702,-23.083969,-0.521240,0.520508,0.924072,0.00,0.00,0.00
1446,250.129771,78.564885,-50.465649,0.190430,0.681885,1.804443,0.00,0.00,0.00
1447,250.129771,105.534351,-59.587786,0.015625,0.359619,1.796143,0.00,0.00,0.00
1448,250.129771,55.465649,-52.145038,-0.398926,-0.042236,1.433350,0.00,0.00,0.00
1449,250.129771,18.618321,-45.083969,-0.277832,-0.074707,1.254395,0.00,0.00,0.00
1450,250.129771,17.816794,-42.580153,0.046143,0.161133,1.292236,0.00,0.00,0.00
1451,250.129771,22.389313,-33.305344,0.245361,0.223145,1.173096,0.00,0.00,0.00
1452,250.129771,40.015267,-12.877863,0.445312,-0.034912,1.312988,0.00,0.00,0.00
1453,250.129771,56.312977,7.740458,0.411621,-0.042236,1.714844,0.00,0.00,0.00
1454,250.129771,42.534351,23.977099,0.011230,0.022217,1.999939,0.00,0.00,0.00
1455,-162.587786,18.870229,1.351145,1.197998,0.876465,1.999939,0.00,0.00,0.00
1456,4.526718,-2.992366,-13.000000,-0.291260,-0.482178,-0.469971,0.00,0.00,0.00
1457,38.587786,2.076336,-4.160305,0.696533,-0.117432,0.690186,0.00,0.00,0.00
1458,11.435115,-12.824427,16.305344,-0.014648,0.201416,1.999939,0.00,0.00,0.00
1459,-2.763359,-4.038168,13.458015,0.032471,-0.033936,0.705322,0.00,0.00,0.00
1460,7.458015,-3.251908,18.351145,0.087891,-0.011719,0.844238,0.00,0.00,0.00
1461,-6.503817,-3.053435,17.290076,-0.023682,0.053467,1.325195,0.00,0.00,0.00
1462,0.572519,-1.274809,19.458015,-0.033691,-0.021240,1.017334,0.00,0.00,0.00
1463,0.641221,0.290076,13.961832,-0.096680,-0.031982,0.918457,0.00,0.00,0.00
1464,-0.549618,0.236641,7.007634,-0.139404,-0.010254,0.990479,0.00,0.00,0.00
1465,-0.274809,0.351145,1.862595,-0.109863,0.003662,0.986816,0.00,0.00,0.00
1466,-0.519084,0.267176,0.320611,0.009766,-0.016113,0.984863,0.00,0.00,0.00
1467,-0.503817,0.694656,1.824427,0.004883,-0.024902,1.003662,0.00,0.00,0.00
1468,-0.328244,1.091603,4.541985,0.007812,-0.025879,0.997559,0.00,0.00,0.00
1469,-0.343511,1.541985,5.442748,-0.002686,-0.047852,0.993896,0.00,0.00,0.00
1470,-0.526718,1.213740,5.137405,-0.010498,-0.012207,1.010742,0.00,0.00,0.00
1471,-0.458015,1.404580,3.748092,-0.010742,-0.008545,0.992920,0.00,0.00,0.00
1472,-0.389313,1.175573,1.870229,0.000488,0.008789,1.002930,0.00,0.00,0.00
1473,-0.572519,1.351145,0.549618,-0.009277,0.001709,0.983154,0.00,0.00,0.00
1474,-0.450382,1.152672,-0.061069,0.008789,0.007324,1.004150,0.00,0.00,0.00
1475,-0.305344,1.419847,-0.068702,0.001221,0.004150,1.005859,0.00,0.00,0.00
1476,-0.129771,1.480916,-0.259542,-0.001221,-0.001953,0.985352,0.00,0.00,0.00
1477,-0.076336,0.763359,-0.091603,-0.002930,-0.000244,1.003662,0.00,0.00,0.00
1478,-0.259542,0.709924,-0.236641,0.003662,-0.004150,0.989502,0.00,0.00,0.00
1479,-0.145038,0.022901,-0.145038,-0.001709,-0.004883,1.008789,0.00,0.00,0.00
1480,-0.236641,-0.381679,-0.045802,-0.007324,-0.005127,1.000488,0.00,0.00,0.00
1481,-0.244275,-0.778626,-0.122137,-0.007080,-0.008545,0.993896,0.00,0.00,0.00
1482,-0.503817,-1.267176,0.236641,-0.006104,-0.006592,0.994385,0.00,0.00,0.00
1483,-0.603053,-1.541985,-0.106870,-0.009766,-0.007324,1.001709,0.00,0.00,0.00
1484,-0.450382,-1.770992,-0.335878,-0.004395,-0.009277,1.007080,0.00,0.00,0.00
1485,-0.389313,-1.648855,-0.114504,0.004150,-0.013184,0.998535,0.00,0.00,0.00
1486,-0.396947,-1.335878,-0.068702,-0.003662,-0.008789,0.995117,0.00,0.00,0.00
1487,-0.206107,-1.221374,0.114504,0.000244,-0.011475,0.999756,0.00,0.00,0.00
1488,-0.274809,-0.946565,-0.015267,-0.002686,-0.005371,0.995117,0.00,0.00,0.00
1489,-0.267176,-0.954198,-0.114504,-0.003662,-0.009277,1.010498,0.00,0.00,0.00
1490,0.068702,-1.198473,-0.022901,-0.011719,-0.007324,0.989502,0.00,0.00,0.00
1491,-0.229008,-0.625954,-0.083969,0.003418,-0.005859,0.993896,0.00,0.00,0.00
1492,-0.099237,-0.732824,-0.137405,-0.000488,-0.010986,0.999512,0.00,0.00,0.00
1493,-0.122137,-0.801527,-0.022901,-0.001221,-0.012695,0.994629,0.00,0.00,0.00
1494,-0.267176,-0.603053,-0.053435,0.002930,-0.009277,1.004639,0.00,0.00,0.00
1495,-0.091603,-0.343511,0.022901,-0.005371,-0.012695,0.996582,0.00,0.00,0.00
1496,-0.206107,-0.358779,0.022901,0.000000,-0.015625,0.988525,0.00,0.00,0.00
1497,-0.145038,-0.435115,0.015267,0.000488,-0.010742,1.004883,0.00,0.00,0.00
1498,-0.053435,-0.183206,0.030534,-0.002197,-0.009033,1.000000,0.00,0.00,0.00
1499,0.000000,-0.259542,-0.022901,-0.002441,-0.007080,0.994629,0.00,0.00,0.00
1500,-0.251908,-0.419847,0.145038,-0.000488,-0.009277,1.003418,0.00,0.00,0.00
1501,-0.083969,-0.511450,-0.083969,-0.001709,-0.008545,0.994141,0.00,0.00,0.00
1502,-0.015267,-0.335878,-0.076336,0.001953,-0.004883,0.999268,0.00,0.00,0.00
1503,-0.022901,-0.305344,-0.068702,-0.002686,-0.013428,0.989014,0.00,0.00,0.00
1504,0.000000,-0.198473,-0.213740,0.004395,-0.006836,1.001221,0.00,0.00,0.00
1505,-0.129771,-0.175573,-0.122137,-0.003174,-0.009766,0.998535,0.00,0.00,0.00
1506,0.068702,0.099237,-0.099237,0.001709,-0.008789,0.991699,0.00,0.00,0.00
1507,0.160305,-0.068702,-0.091603,0.000977,-0.009521,1.001709,0.00,0.00,0.00
1508,0.061069,-0.122137,-0.099237,0.006592,-0.012939,0.993164,0.00,0.00,0.00
1509,0.015267,-0.190840,-0.122137,0.003418,-0.008057,0.994141,0.00,0.00,0.00
1510,-0.122137,-0.290076,0.030534,0.001465,-0.008301,0.997070,0.00,0.00,0.00
1511,-0.320611,-0.274809,-0.137405,-0.001221,-0.004639,0.981201,0.00,0.00,0.00
1512,-0.183206,-0.641221,-0.106870,-0.000488,-0.009766,0.991211,0.00,0.00,0.00
1513,-0.221374,-0.229008,0.068702,-0.002197,-0.008057,0.999268,0.00,0.00,0.00
1514,-0.198473,-0.381679,0.083969,-0.004639,-0.003174,1.003418,0.00,0.00,0.00
1515,-0.114504,-0.160305,-0.061069,-0.001953,-0.010254,1.001221,0.00,0.00,0.00
1516,0.129771,-0.229008,0.053435,0.001221,-0.001465,0.988770,0.00,0.00,0.00
1517,0.068702,-0.175573,-0.244275,0.000000,-0.008301,0.995850,0.00,0.00,0.00
1518,-0.068702,-0.137405,0.061069,-0.001465,-0.005859,1.007080,0.00,0.00,0.00
1519,0.000000,-0.152672,0.068702,0.004150,-0.006592,0.997070,0.00,0.00,0.00
1520,-0.068702,-0.145038,0.038168,0.000000,-0.006592,1.007812,0.00,0.00,0.00
1521,-0.007634,0.038168,-0.015267,0.000244,-0.007812,0.992188,0.00,0.00,0.00
1522,-0.091603,0.045802,-0.030534,-0.000732,-0.012939,1.008301,0.00,0.00,0.00
1523,0.137405,-0.022901,0.007634,-0.001953,-0.010986,0.986572,0.00,0.00,0.00
1524,-0.030534,-0.106870,-0.007634,0.001709,-0.008057,0.992188,0.00,0.00,0.00
1525,0.015267,-0.015267,-0.030534,0.000244,-0.011475,1.009033,0.00,0.00,0.00
1526,0.091603,-0.083969,-0.015267,0.002441,-0.009521,0.994629,0.00,0.00,0.00
1527,0.145038,-0.099237,0.007634,-0.002441,-0.011963,1.000244,0.00,0.00,0.00
1528,0.251908,-0.015267,0.038168,0.001465,-0.011719,0.994629,0.00,0.00,0.00
1529,0.068702,-0.076336,0.091603,0.001465,-0.011230,0.997070,0.00,0.00,0.00
1530,0.160305,0.190840,0.030534,-0.003906,-0.012207,1.002930,0.00,0.00,0.00
1531,0.183206,0.435115,0.091603,-0.006592,-0.007324,0.993652,0.00,0.00,0.00
1532,0.267176,-0.145038,0.007634,-0.002686,-0.007812,1.004395,0.00,0.00,0.00
1533,0.320611,0.587786,0.335878,-0.032227,-0.024414,0.996826,0.00,0.00,0.00
1534,0.809160,1.312977,1.305344,-0.183105,-0.098633,0.983887,0.00,0.00,0.00
1535,0.656489,0.648855,-2.305344,-0.002441,0.010498,0.991211,0.00,0.00,0.00
1536,0.671756,0.671756,-2.916031,-0.017090,-0.013184,0.991455,0.00,0.00,0.00
1537,0.167939,0.603053,-3.007634,-0.020752,-0.009521,1.006592,0.00,0.00,0.00
1538,0.809160,0.916031,-3.778626,-0.020020,-0.011963,0.976807,0.00,0.00,0.00
1539,0.580153,0.893130,-4.450382,0.012939,0.004150,0.999268,0.00,0.00,0.00
1540,0.435115,0.709924,-4.923664,0.006104,0.004883,0.999268,0.00,0.00,0.00
1541,0.480916,0.404580,-4.343511,0.020508,0.003906,0.988037,0.00,0.00,0.00
1542,0.396947,0.274809,-3.847328,0.030273,0.015625,1.004639,0.00,0.00,0.00
1543,0.328244,-0.152672,-3.343511,0.045410,0.001465,1.000732,0.00,0.00,0.00
1544,0.503817,-0.328244,-2.641221,0.011719,0.005371,0.996338,0.00,0.00,0.00
1545,0.480916,-0.175573,-2.167939,0.035645,0.001953,1.009521,0.00,0.00,0.00
1546,0.709924,-0.137405,-1.732824,0.011719,0.005859,0.986816,0.00,0.00,0.00
1547,0.732824,0.137405,-1.816794,-0.000488,-0.003662,1.015381,0.00,0.00,0.00
1548,0.854962,0.496183,-3.687023,-0.050781,0.006836,1.001465,0.00,0.00,0.00
1549,0.931298,1.671756,-6.167939,-0.054443,0.001221,1.005371,0.00,0.00,0.00
1550,0.816794,2.541985,-7.992366,-0.034668,-0.006836,1.012207,0.00,0.00,0.00
1551,0.740458,3.595420,-9.587786,-0.044922,0.003906,1.001709,0.00,0.00,0.00
1552,-0.221374,4.381679,-11.061069,-0.033203,0.007080,1.049805,0.00,0.00,0.00
1553,-3.992366,5.977099,-12.404580,-0.037354,0.012695,1.062988,0.00,0.00,0.00
1554,-6.435115,7.312977,-14.374046,-0.032959,0.007568,1.059082,0.00,0.00,0.00
1555,-8.564885,8.526718,-15.450382,-0.023682,0.000732,1.062988,0.00,0.00,0.00
1556,-11.251908,10.458015,-16.389313,-0.031982,-0.001221,1.077393,0.00,0.00,0.00
1557,-14.053435,12.374046,-18.290076,-0.046631,-0.005859,1.083252,0.00,0.00,0.00
1558,-17.725191,14.778626,-20.328244,-0.051025,-0.017090,1.109375,0.00,0.00,0.00
1559,-22.251908,16.717557,-21.946565,-0.049072,-0.022461,1.105225,0.00,0.00,0.00
1560,-25.977099,17.595420,-24.114504,-0.057129,-0.029053,1.089355,0.00,0.00,0.00
1561,-29.091603,18.793893,-27.496183,-0.114502,-0.044678,1.068115,0.00,0.00,0.00
1562,-31.557252,18.221374,-32.549618,-0.141357,-0.039062,1.063477,0.00,0.00,0.00
1563,-33.969466,18.465649,-36.030534,-0.118408,-0.031250,1.058350,0.00,0.00,0.00
1564,-36.770992,17.412214,-39.366412,-0.112305,-0.038086,1.070801,0.00,0.00,0.00
