Packet number,Gyroscope X (deg/s),Gyroscope Y (deg/s),Gyroscope Z (deg/s),Accelerometer X (g),Accelerometer Y (g),Accelerometer Z (g),Magnetometer X (G),Magnetometer Y (G),Magnetometer Z (G)
1,-0.198473,-0.038168,-0.030534,-0.265869,-0.541016,0.781006,0.00,0.00,0.00
2,-0.251908,0.129771,0.076336,-0.257324,-0.538086,0.791260,0.00,0.00,0.00
3,-0.015267,0.244275,0.022901,-0.260254,-0.539551,0.794434,0.00,0.00,0.00
4,-0.045802,0.083969,-0.030534,-0.261963,-0.540771,0.789551,0.00,0.00,0.00
5,0.000000,-0.022901,-0.015267,-0.260498,-0.545410,0.792480,0.00,0.00,0.00
6,-0.160305,-0.053435,-0.045802,-0.260498,-0.535889,0.787109,0.00,0.00,0.00
7,-0.236641,0.076336,0.030534,-0.255127,-0.539795,0.794189,0.00,0.00,0.00
8,-0.091603,0.145038,0.068702,-0.257812,-0.537842,0.788330,0.00,0.00,0.00
9,-0.015267,0.152672,0.007634,-0.262207,-0.535156,0.790283,0.00,0.00,0.00
10,-0.282443,0.053435,-0.030534,-0.258789,-0.539795,0.789307,0.00,0.00,0.00
11,-0.061069,0.045802,-0.091603,-0.262451,-0.542480,0.791992,0.00,0.00,0.00
12,-0.206107,0.038168,0.137405,-0.254883,-0.536865,0.784424,0.00,0.00,0.00
13,-0.290076,0.175573,-0.099237,-0.264160,-0.540283,0.794434,0.00,0.00,0.00
14,-0.259542,0.137405,-0.061069,-0.268311,-0.542969,0.792725,0.00,0.00,0.00
15,-0.114504,0.213740,-0.030534,-0.255859,-0.540039,0.782227,0.00,0.00,0.00
16,-0.305344,0.183206,0.061069,-0.264648,-0.540771,0.786133,0.00,0.00,0.00
17,-0.206107,0.122137,-0.106870,-0.254883,-0.541016,0.787842,0.00,0.00,0.00
18,-0.099237,0.221374,-0.106870,-0.257324,-0.544678,0.790527,0.00,0.00,0.00
19,-0.068702,0.083969,-0.160305,-0.262451,-0.541016,0.787354,0.00,0.00,0.00
20,-0.091603,0.038168,-0.137405,-0.257324,-0.541016,0.787598,0.00,0.00,0.00
21,0.007634,0.045802,-0.160305,-0.260498,-0.538330,0.784668,0.00,0.00,0.00
22,-0.190840,0.015267,-0.061069,-0.260010,-0.538818,0.794922,0.00,0.00,0.00
23,-0.061069,0.106870,0.137405,-0.262451,-0.541016,0.789062,0.00,0.00,0.00
24,-0.206107,0.190840,-0.038168,-0.257080,-0.543701,0.792725,0.00,0.00,0.00
25,-0.076336,0.099237,-0.160305,-0.262207,-0.532715,0.788330,0.00,0.00,0.00
26,-0.015267,-0.053435,-0.305344,-0.260010,-0.536133,0.785889,0.00,0.00,0.00
27,-0.030534,-0.068702,-0.114504,-0.256348,-0.533691,0.785156,0.00,0.00,0.00
28,0.015267,0.007634,-0.122137,-0.257812,-0.538330,0.781494,0.00,0.00,0.00
29,0.053435,0.053435,-0.221374,-0.266602,-0.540527,0.787109,0.00,0.00,0.00
30,0.022901,-0.030534,-0.137405,-0.254150,-0.541748,0.783447,0.00,0.00,0.00
31,-0.015267,-0.015267,-0.099237,-0.256592,-0.545410,0.785889,0.00,0.00,0.00
32,-0.152672,-0.068702,-0.076336,-0.258057,-0.538574,0.784912,0.00,0.00,0.00
33,-0.045802,-0.083969,-0.038168,-0.259277,-0.543701,0.776855,0.00,0.00,0.00
34,-0.015267,-0.038168,0.076336,-0.256592,-0.540527,0.784180,0.00,0.00,0.00
35,-0.053435,-0.015267,-0.099237,-0.254883,-0.538818,0.784912,0.00,0.00,0.00
36,0.122137,0.122137,-0.045802,-0.259277,-0.538086,0.788574,0.00,0.00,0.00
37,-0.022901,0.076336,-0.091603,-0.258789,-0.535889,0.782471,0.00,0.00,0.00
38,-0.129771,-0.053435,-0.114504,-0.263428,-0.534668,0.785400,0.00,0.00,0.00
39,-0.099237,0.083969,-0.106870,-0.262207,-0.538086,0.776367,0.00,0.00,0.00
40,0.083969,-0.015267,-0.030534,-0.259766,-0.541504,0.788086,0.00,0.00,0.00
41,-0.007634,-0.015267,-0.122137,-0.258301,-0.544678,0.780029,0.00,0.00,0.00
42,0.145038,-0.061069,-0.206107,-0.262451,-0.538574,0.784424,0.00,0.00,0.00
43,0.022901,-0.015267,-0.076336,-0.260986,-0.535645,0.778564,0.00,0.00,0.00
44,-0.083969,0.045802,-0.137405,-0.260742,-0.542480,0.783691,0.00,0.00,0.00
45,0.038168,-0.160305,-0.236641,-0.260498,-0.546143,0.784180,0.00,0.00,0.00
46,-0.068702,0.022901,-0.297710,-0.261475,-0.540527,0.790039,0.00,0.00,0.00
47,0.083969,0.053435,-0.167939,-0.256592,-0.544189,0.784180,0.00,0.00,0.00
48,-0.083969,-0.175573,-0.167939,-0.265869,-0.542480,0.799072,0.00,0.00,0.00
49,0.068702,-0.175573,-0.106870,-0.259277,-0.540283,0.784912,0.00,0.00,0.00
50,-0.053435,-0.091603,-0.213740,-0.253662,-0.538330,0.781494,0.00,0.00,0.00
51,-0.015267,0.015267,-0.068702,-0.260986,-0.540283,0.785645,0.00,0.00,0.00
52,0.076336,-0.198473,-0.259542,-0.263672,-0.538086,0.774902,0.00,0.00,0.00
53,0.160305,-0.221374,-0.190840,-0.263916,-0.538574,0.791992,0.00,0.00,0.00
54,0.152672,-0.282443,-0.221374,-0.259521,-0.540527,0.791016,0.00,0.00,0.00
55,0.221374,-0.129771,-0.251908,-0.258301,-0.538574,0.784180,0.00,0.00,0.00
56,0.129771,-0.076336,-0.091603,-0.266113,-0.540039,0.783447,0.00,0.00,0.00
57,0.015267,-0.038168,-0.244275,-0.266113,-0.540771,0.792480,0.00,0.00,0.00
58,0.206107,-0.129771,-0.198473,-0.264648,-0.541504,0.780518,0.00,0.00,0.00
59,0.167939,-0.045802,-0.106870,-0.257324,-0.537354,0.784912,0.00,0.00,0.00
60,-0.022901,-0.083969,-0.152672,-0.259766,-0.538818,0.793213,0.00,0.00,0.00
61,-0.061069,-0.022901,-0.183206,-0.259277,-0.540771,0.790771,0.00,0.00,0.00
62,0.145038,-0.229008,-0.312977,-0.263428,-0.540771,0.781006,0.00,0.00,0.00
63,0.106870,-0.145038,-0.312977,-0.259277,-0.541992,0.791260,0.00,0.00,0.00
64,0.129771,-0.091603,-0.450382,-0.259277,-0.541260,0.788086,0.00,0.00,0.00
65,0.114504,-0.160305,-0.183206,-0.264648,-0.536377,0.773438,0.00,0.00,0.00
66,0.175573,-0.122137,-0.190840,-0.261230,-0.542236,0.781982,0.00,0.00,0.00
67,0.053435,-0.213740,-0.137405,-0.257324,-0.545410,0.784668,0.00,0.00,0.00
68,0.106870,-0.091603,-0.244275,-0.259277,-0.537842,0.791504,0.00,0.00,0.00
69,0.091603,-0.190840,-0.175573,-0.262695,-0.540283,0.790771,0.00,0.00,0.00
70,-0.045802,0.015267,-0.229008,-0.263184,-0.539307,0.785400,0.00,0.00,0.00
71,0.045802,-0.175573,-0.091603,-0.260986,-0.538818,0.781250,0.00,0.00,0.00
72,0.030534,0.053435,0.015267,-0.259277,-0.542236,0.790283,0.00,0.00,0.00
73,0.152672,-0.038168,-0.198473,-0.259277,-0.540283,0.781982,0.00,0.00,0.00
74,0.068702,-0.083969,-0.198473,-0.258545,-0.534424,0.788330,0.00,0.00,0.00
75,0.099237,-0.022901,-0.251908,-0.260010,-0.541016,0.786621,0.00,0.00,0.00
76,0.229008,-0.068702,-0.259542,-0.260986,-0.540527,0.786133,0.00,0.00,0.00
77,0.129771,-0.183206,-0.290076,-0.254639,-0.544678,0.780762,0.00,0.00,0.00
78,0.129771,-0.274809,-0.320611,-0.262695,-0.536377,0.789551,0.00,0.00,0.00
79,0.068702,-0.183206,-0.137405,-0.264648,-0.540283,0.787598,0.00,0.00,0.00
80,0.015267,-0.091603,-0.183206,-0.264893,-0.537109,0.787598,0.00,0.00,0.00
81,-0.068702,-0.137405,-0.160305,-0.256104,-0.539307,0.780273,0.00,0.00,0.00
82,0.030534,0.000000,-0.061069,-0.260742,-0.538330,0.794189,0.00,0.00,0.00
83,-0.022901,-0.129771,-0.213740,-0.257324,-0.541992,0.796875,0.00,0.00,0.00
84,0.015267,-0.129771,-0.297710,-0.255615,-0.536621,0.780762,0.00,0.00,0.00
85,0.045802,0.015267,-0.030534,-0.268066,-0.545410,0.782471,0.00,0.00,0.00
86,-0.061069,-0.076336,-0.091603,-0.257080,-0.538574,0.789551,0.00,0.00,0.00
87,-0.007634,-0.007634,-0.145038,-0.263184,-0.536377,0.782471,0.00,0.00,0.00
88,-0.053435,-0.083969,-0.091603,-0.262207,-0.540039,0.785889,0.00,0.00,0.00
89,-0.061069,-0.061069,-0.221374,-0.259277,-0.544922,0.791016,0.00,0.00,0.00
90,-0.122137,0.076336,-0.175573,-0.265381,-0.535400,0.790527,0.00,0.00,0.00
91,0.145038,-0.022901,-0.244275,-0.257324,-0.541016,0.789307,0.00,0.00,0.00
92,-0.068702,-0.145038,-0.198473,-0.265381,-0.535645,0.781250,0.00,0.00,0.00
93,0.152672,-0.091603,-0.305344,-0.258545,-0.538818,0.784912,0.00,0.00,0.00
94,0.129771,-0.053435,-0.167939,-0.258789,-0.535400,0.788330,0.00,0.00,0.00
95,-0.106870,-0.137405,-0.106870,-0.255127,-0.540283,0.792725,0.00,0.00,0.00
96,0.007634,-0.175573,-0.129771,-0.254639,-0.543945,0.789062,0.00,0.00,0.00
97,0.114504,-0.221374,-0.137405,-0.262207,-0.541016,0.786133,0.00,0.00,0.00
98,0.015267,-0.076336,-0.305344,-0.262451,-0.537842,0.789307,0.00,0.00,0.00
99,0.053435,-0.183206,-0.114504,-0.258789,-0.538086,0.778809,0.00,0.00,0.00
100,0.045802,-0.175573,-0.198473,-0.260254,-0.541992,0.789551,0.00,0.00,0.00
101,0.038168,-0.236641,-0.335878,-0.254395,-0.540527,0.794189,0.00,0.00,0.00
102,0.091603,-0.145038,-0.175573,-0.261230,-0.539062,0.782227,0.00,0.00,0.00
103,-0.038168,0.015267,-0.267176,-0.262207,-0.542236,0.784912,0.00,0.00,0.00
104,-0.045802,-0.022901,-0.213740,-0.262695,-0.541992,0.787109,0.00,0.00,0.00
105,-0.053435,-0.175573,-0.137405,-0.264893,-0.539795,0.784424,0.00,0.00,0.00
106,-0.030534,-0.251908,-0.160305,-0.261230,-0.546143,0.782715,0.00,0.00,0.00
107,0.068702,-0.083969,-0.274809,-0.258545,-0.540283,0.782471,0.00,0.00,0.00
108,-0.099237,-0.015267,-0.083969,-0.261719,-0.540283,0.778320,0.00,0.00,0.00
109,-0.099237,0.038168,-0.152672,-0.260498,-0.539307,0.781250,0.00,0.00,0.00
110,0.091603,-0.236641,-0.091603,-0.260498,-0.535156,0.789307,0.00,0.00,0.00
111,-0.015267,-0.068702,-0.198473,-0.264404,-0.543213,0.784424,0.00,0.00,0.00
112,0.091603,-0.167939,-0.267176,-0.262939,-0.538086,0.784180,0.00,0.00,0.00
113,-0.022901,-0.137405,-0.175573,-0.263184,-0.535156,0.788574,0.00,0.00,0.00
114,0.030534,-0.206107,-0.297710,-0.261719,-0.543945,0.791992,0.00,0.00,0.00
115,0.183206,-0.114504,-0.282443,-0.258545,-0.543213,0.789551,0.00,0.00,0.00
116,0.152672,-0.076336,-0.282443,-0.261719,-0.536621,0.784424,0.00,0.00,0.00
117,-0.114504,-0.045802,-0.335878,-0.257324,-0.542236,0.796143,0.00,0.00,0.00
118,0.030534,-0.206107,-0.083969,-0.257568,-0.540039,0.784424,0.00,0.00,0.00
119,0.213740,-0.122137,-0.206107,-0.257324,-0.537354,0.787842,0.00,0.00,0.00
120,0.030534,-0.145038,-0.259542,-0.258057,-0.537354,0.791260,0.00,0.00,0.00
121,-0.083969,-0.091603,-0.091603,-0.254639,-0.540771,0.782715,0.00,0.00,0.00
122,0.038168,-0.015267,-0.175573,-0.258545,-0.539795,0.784180,0.00,0.00,0.00
123,0.045802,-0.015267,-0.137405,-0.259521,-0.540039,0.778320,0.00,0.00,0.00
124,-0.099237,-0.038168,-0.053435,-0.258789,-0.539551,0.781494,0.00,0.00,0.00
125,0.076336,-0.053435,-0.106870,-0.260498,-0.539062,0.783691,0.00,0.00,0.00
126,0.000000,0.083969,-0.076336,-0.258301,-0.544678,0.783936,0.00,0.00,0.00
127,0.000000,-0.007634,-0.167939,-0.267090,-0.538086,0.786377,0.00,0.00,0.00
128,-0.145038,-0.015267,-0.213740,-0.268799,-0.541016,0.788330,0.00,0.00,0.00
129,-0.022901,-0.106870,-0.145038,-0.259521,-0.541992,0.783691,0.00,0.00,0.00
130,-0.030534,-0.022901,-0.099237,-0.262939,-0.540039,0.787354,0.00,0.00,0.00
131,-0.030534,-0.091603,-0.145038,-0.256592,-0.542480,0.782715,0.00,0.00,0.00
132,0.022901,-0.129771,-0.106870,-0.256836,-0.541260,0.791748,0.00,0.00,0.00
133,0.015267,-0.099237,-0.106870,-0.257080,-0.539551,0.795410,0.00,0.00,0.00
134,0.022901,-0.068702,-0.305344,-0.261963,-0.542969,0.783203,0.00,0.00,0.00
135,0.175573,-0.145038,-0.030534,-0.268311,-0.539062,0.784180,0.00,0.00,0.00
136,0.007634,-0.007634,-0.068702,-0.258545,-0.538574,0.787598,0.00,0.00,0.00
137,0.061069,-0.160305,-0.114504,-0.260742,-0.541260,0.782715,0.00,0.00,0.00
138,0.030534,-0.198473,-0.236641,-0.262451,-0.537598,0.780518,0.00,0.00,0.00
139,0.152672,-0.198473,-0.114504,-0.266846,-0.538818,0.778809,0.00,0.00,0.00
140,0.198473,-0.251908,-0.267176,-0.257568,-0.537109,0.781738,0.00,0.00,0.00
141,0.114504,-0.259542,-0.129771,-0.261963,-0.534912,0.795410,0.00,0.00,0.00
143,-0.183206,0.412214,-0.030534,-0.290283,-0.552246,0.761230,0.00,0.00,0.00
144,-0.091603,0.244275,-0.045802,-0.297119,-0.549072,0.763672,0.00,0.00,0.00
145,-0.160305,-0.007634,0.076336,-0.297119,-0.554443,0.764160,0.00,0.00,0.00
146,-0.015267,0.213740,-0.053435,-0.292480,-0.547852,0.771973,0.00,0.00,0.00
147,-0.007634,0.221374,-0.015267,-0.296387,-0.556152,0.769531,0.00,0.00,0.00
148,-0.076336,0.076336,-0.038168,-0.303711,-0.554688,0.754150,0.00,0.00,0.00
149,-0.183206,0.091603,0.129771,-0.294434,-0.551514,0.761719,0.00,0.00,0.00
150,-0.076336,0.145038,-0.007634,-0.288574,-0.551514,0.769775,0.00,0.00,0.00
151,-0.045802,-0.045802,0.000000,-0.300293,-0.550781,0.756592,0.00,0.00,0.00
152,0.068702,-0.106870,0.015267,-0.295898,-0.555420,0.760254,0.00,0.00,0.00
153,0.076336,0.038168,-0.076336,-0.297852,-0.562988,0.764160,0.00,0.00,0.00
154,0.022901,0.083969,0.038168,-0.292969,-0.556641,0.764404,0.00,0.00,0.00
155,-0.122137,0.045802,-0.022901,-0.293945,-0.552979,0.769287,0.00,0.00,0.00
156,-0.213740,0.175573,-0.022901,-0.296875,-0.552979,0.772949,0.00,0.00,0.00
157,-0.106870,0.251908,0.099237,-0.291016,-0.548584,0.769775,0.00,0.00,0.00
158,-0.312977,0.465649,0.106870,-0.293457,-0.552979,0.771973,0.00,0.00,0.00
159,-0.435115,0.572519,0.053435,-0.292480,-0.550537,0.766602,0.00,0.00,0.00
160,-0.595420,0.610687,0.290076,-0.292480,-0.550781,0.764160,0.00,0.00,0.00
161,-0.442748,0.648855,0.198473,-0.291504,-0.555176,0.767334,0.00,0.00,0.00
162,-0.511450,0.572519,0.274809,-0.300293,-0.551758,0.759521,0.00,0.00,0.00
163,-0.503817,0.595420,0.106870,-0.301758,-0.552490,0.765625,0.00,0.00,0.00
164,-0.488550,0.587786,0.282443,-0.299072,-0.551270,0.769043,0.00,0.00,0.00
165,-0.274809,0.442748,0.206107,-0.294922,-0.547852,0.764404,0.00,0.00,0.00
166,-0.396947,0.618321,0.259542,-0.295410,-0.551514,0.755371,0.00,0.00,0.00
167,-0.526718,0.610687,0.106870,-0.287598,-0.553467,0.759033,0.00,0.00,0.00
168,-0.511450,0.541985,0.122137,-0.294678,-0.554932,0.768555,0.00,0.00,0.00
169,-0.274809,0.526718,0.366412,-0.297607,-0.556641,0.761475,0.00,0.00,0.00
170,-0.389313,0.427481,0.259542,-0.300049,-0.554688,0.759521,0.00,0.00,0.00
171,-0.511450,0.519084,0.175573,-0.300537,-0.550537,0.759277,0.00,0.00,0.00
172,-0.358779,0.473282,0.175573,-0.297119,-0.551025,0.770264,0.00,0.00,0.00
173,-0.396947,0.290076,0.236641,-0.292725,-0.555176,0.768799,0.00,0.00,0.00
174,-0.427481,0.351145,0.152672,-0.290283,-0.554443,0.766846,0.00,0.00,0.00
175,-0.381679,0.152672,0.045802,-0.301514,-0.552734,0.754639,0.00,0.00,0.00
176,-0.244275,0.251908,0.167939,-0.299805,-0.555664,0.758301,0.00,0.00,0.00
177,-0.435115,0.053435,0.145038,-0.296143,-0.554688,0.762695,0.00,0.00,0.00
178,-0.328244,0.251908,0.000000,-0.298340,-0.553711,0.757568,0.00,0.00,0.00
179,-0.190840,0.190840,-0.061069,-0.304688,-0.554443,0.765625,0.00,0.00,0.00
180,-0.076336,0.213740,-0.022901,-0.300293,-0.553467,0.754150,0.00,0.00,0.00
181,-0.099237,0.145038,-0.061069,-0.299316,-0.556152,0.758545,0.00,0.00,0.00
182,0.152672,0.122137,-0.030534,-0.302490,-0.549561,0.754639,0.00,0.00,0.00
183,0.106870,-0.068702,-0.259542,-0.301758,-0.553467,0.758301,0.00,0.00,0.00
184,0.122137,0.038168,-0.183206,-0.305908,-0.555420,0.760498,0.00,0.00,0.00
185,-0.053435,-0.068702,-0.297710,-0.300293,-0.554932,0.753906,0.00,0.00,0.00
186,0.083969,-0.122137,-0.412214,-0.296631,-0.550781,0.760498,0.00,0.00,0.00
187,0.076336,-0.091603,-0.244275,-0.294434,-0.556641,0.755615,0.00,0.00,0.00
188,0.213740,-0.061069,-0.312977,-0.297363,-0.556152,0.760254,0.00,0.00,0.00
189,0.335878,-0.198473,-0.297710,-0.299316,-0.549561,0.759521,0.00,0.00,0.00
190,0.137405,-0.297710,-0.305344,-0.300049,-0.558838,0.766846,0.00,0.00,0.00
191,0.076336,-0.183206,-0.358779,-0.296875,-0.551758,0.770264,0.00,0.00,0.00
192,0.305344,-0.213740,-0.366412,-0.289795,-0.560791,0.765625,0.00,0.00,0.00
193,0.122137,-0.274809,-0.374046,-0.298340,-0.555176,0.757812,0.00,0.00,0.00
194,0.358779,-0.267176,-0.519084,-0.296631,-0.549561,0.759766,0.00,0.00,0.00
195,0.274809,-0.320611,-0.366412,-0.299561,-0.554932,0.759766,0.00,0.00,0.00
196,0.198473,-0.305344,-0.374046,-0.293701,-0.552979,0.763428,0.00,0.00,0.00
197,0.038168,-0.160305,-0.236641,-0.292969,-0.554932,0.764893,0.00,0.00,0.00
198,-0.007634,-0.022901,0.038168,-0.298096,-0.552002,0.765381,0.00,0.00,0.00
199,-0.091603,-0.083969,-0.106870,-0.295898,-0.552734,0.760010,0.00,0.00,0.00
200,-0.015267,0.068702,-0.167939,-0.299561,-0.554443,0.766113,0.00,0.00,0.00
201,-0.183206,0.045802,-0.137405,-0.296143,-0.548584,0.761963,0.00,0.00,0.00
202,0.015267,0.015267,-0.152672,-0.299072,-0.553955,0.773682,0.00,0.00,0.00
203,0.045802,0.076336,-0.374046,-0.294922,-0.555176,0.765869,0.00,0.00,0.00
204,0.099237,-0.007634,-0.152672,-0.296631,-0.555420,0.761230,0.00,0.00,0.00
205,-0.030534,0.259542,-0.259542,-0.292480,-0.557129,0.767578,0.00,0.00,0.00
206,0.076336,0.160305,0.000000,-0.292236,-0.555420,0.757812,0.00,0.00,0.00
207,0.160305,0.213740,-0.045802,-0.297119,-0.553467,0.760254,0.00,0.00,0.00
208,-0.038168,-0.030534,-0.213740,-0.300049,-0.554688,0.758301,0.00,0.00,0.00
209,-0.053435,0.053435,-0.114504,-0.296631,-0.558838,0.751221,0.00,0.00,0.00
210,-0.053435,0.000000,-0.251908,-0.292969,-0.554932,0.757080,0.00,0.00,0.00
211,-0.030534,0.152672,-0.137405,-0.295898,-0.545654,0.765381,0.00,0.00,0.00
212,-0.114504,0.106870,-0.190840,-0.297852,-0.553467,0.761719,0.00,0.00,0.00
213,0.015267,0.122137,-0.312977,-0.294678,-0.559814,0.750000,0.00,0.00,0.00
214,0.946565,4.580153,-2.992366,-0.237061,-0.437012,0.776611,0.00,0.00,0.00
215,4.381679,0.687023,-2.312977,-0.431152,-0.507080,0.576904,0.00,0.00,0.00
216,-1.305344,0.709924,-0.022901,-0.245117,-0.513428,0.726318,0.00,0.00,0.00
217,0.282443,-0.229008,0.022901,-0.250977,-0.567871,0.768555,0.00,0.00,0.00
218,0.045802,0.328244,0.267176,-0.316406,-0.535645,0.769287,0.00,0.00,0.00
219,-0.465649,-0.633588,-0.671756,-0.344238,-0.550781,0.774658,0.00,0.00,0.00
220,-0.015267,-0.091603,-0.343511,-0.289062,-0.558838,0.763184,0.00,0.00,0.00
221,-0.015267,0.465649,-0.129771,-0.278809,-0.560791,0.769531,0.00,0.00,0.00
222,-0.221374,0.274809,-0.022901,-0.296143,-0.556641,0.762451,0.00,0.00,0.00
223,-0.106870,0.480916,0.068702,-0.293945,-0.553223,0.752930,0.00,0.00,0.00
224,-0.190840,-0.091603,-0.244275,-0.309814,-0.551270,0.765869,0.00,0.00,0.00
225,-0.274809,0.015267,-0.305344,-0.298096,-0.554443,0.757812,0.00,0.00,0.00
226,0.076336,0.312977,-0.099237,-0.291992,-0.553711,0.766113,0.00,0.00,0.00
227,-0.129771,0.007634,-0.267176,-0.303467,-0.556396,0.760010,0.00,0.00,0.00
228,0.229008,0.091603,-0.297710,-0.309326,-0.548828,0.767090,0.00,0.00,0.00
229,0.091603,-0.274809,-0.312977,-0.296631,-0.555176,0.769287,0.00,0.00,0.00
230,0.068702,-0.106870,-0.343511,-0.297607,-0.556152,0.756836,0.00,0.00,0.00
231,0.206107,0.083969,-0.526718,-0.294434,-0.553955,0.765137,0.00,0.00,0.00
232,0.030534,-0.106870,-0.259542,-0.293213,-0.559082,0.750244,0.00,0.00,0.00
233,0.274809,-0.152672,-0.183206,-0.292725,-0.549316,0.759521,0.00,0.00,0.00
234,0.030534,-0.030534,-0.106870,-0.302979,-0.553711,0.761230,0.00,0.00,0.00
235,0.213740,-0.030534,-0.213740,-0.294678,-0.555664,0.759033,0.00,0.00,0.00
236,0.076336,-0.190840,-0.236641,-0.299316,-0.552979,0.756836,0.00,0.00,0.00
237,0.015267,-0.129771,-0.244275,-0.293213,-0.553223,0.762207,0.00,0.00,0.00
238,0.519084,0.610687,-0.832061,-0.297119,-0.543945,0.758545,0.00,0.00,0.00
239,-2.503817,-2.213740,1.473282,-0.318848,-0.691162,0.745117,0.00,0.00,0.00
240,-1.068702,-0.900763,-0.213740,-0.250488,-0.549316,0.851562,0.00,0.00,0.00
241,0.358779,-0.358779,-0.251908,-0.258789,-0.587891,0.747803,0.00,0.00,0.00
242,0.297710,0.137405,0.122137,-0.309570,-0.560303,0.778809,0.00,0.00,0.00
243,-0.290076,-0.221374,-0.305344,-0.344482,-0.540527,0.777588,0.00,0.00,0.00
244,-0.114504,0.045802,-0.175573,-0.289062,-0.554199,0.755615,0.00,0.00,0.00
245,0.106870,-0.068702,-0.160305,-0.283447,-0.553711,0.751465,0.00,0.00,0.00
246,0.137405,0.030534,0.137405,-0.294434,-0.556396,0.766602,0.00,0.00,0.00
247,0.091603,0.099237,-0.091603,-0.305176,-0.555664,0.754639,0.00,0.00,0.00
248,-0.061069,-0.213740,-0.152672,-0.306396,-0.547607,0.763672,0.00,0.00,0.00
249,-0.091603,0.015267,-0.221374,-0.292725,-0.557617,0.763916,0.00,0.00,0.00
250,0.053435,0.137405,-0.091603,-0.288330,-0.559082,0.771484,0.00,0.00,0.00
251,0.099237,-0.129771,-0.091603,-0.297852,-0.555664,0.771240,0.00,0.00,0.00
252,0.122137,0.061069,-0.175573,-0.300293,-0.562500,0.766602,0.00,0.00,0.00
253,-0.038168,-0.244275,-0.137405,-0.302979,-0.559326,0.758789,0.00,0.00,0.00
254,0.038168,0.007634,-0.160305,-0.300293,-0.559570,0.747803,0.00,0.00,0.00
255,0.015267,-0.099237,-0.106870,-0.299805,-0.556152,0.770508,0.00,0.00,0.00
256,-0.015267,-0.045802,-0.335878,-0.298584,-0.554688,0.760498,0.00,0.00,0.00
257,-0.022901,-0.053435,-0.145038,-0.295898,-0.549316,0.766602,0.00,0.00,0.00
258,0.007634,-0.282443,-0.312977,-0.298340,-0.553711,0.755371,0.00,0.00,0.00
259,0.106870,-0.244275,-0.229008,-0.299561,-0.551025,0.767090,0.00,0.00,0.00
260,0.122137,-0.198473,-0.290076,-0.298340,-0.557617,0.767090,0.00,0.00,0.00
261,0.236641,-0.259542,-0.366412,-0.296387,-0.553955,0.765137,0.00,0.00,0.00
262,0.328244,-0.145038,-0.282443,-0.294189,-0.553467,0.760742,0.00,0.00,0.00
263,0.404580,-0.145038,-0.412214,-0.295654,-0.547852,0.753174,0.00,0.00,0.00
264,0.190840,-0.045802,-0.297710,-0.291504,-0.554443,0.761719,0.00,0.00,0.00
265,0.244275,-0.114504,-0.167939,-0.302246,-0.559570,0.758789,0.00,0.00,0.00
266,0.038168,-0.297710,-0.274809,-0.302246,-0.553955,0.770264,0.00,0.00,0.00
267,0.129771,-0.404580,-0.343511,-0.298584,-0.559082,0.760742,0.00,0.00,0.00
268,0.328244,-0.145038,-0.335878,-0.299316,-0.548828,0.765625,0.00,0.00,0.00
269,0.183206,-0.221374,-0.465649,-0.289795,-0.551758,0.763428,0.00,0.00,0.00
270,0.206107,-0.091603,-0.312977,-0.296387,-0.553467,0.772705,0.00,0.00,0.00
271,0.129771,-0.167939,-0.251908,-0.297119,-0.552490,0.768311,0.00,0.00,0.00
272,0.061069,-0.122137,-0.328244,-0.294678,-0.553955,0.770752,0.00,0.00,0.00
273,0.114504,0.091603,-0.099237,-0.295166,-0.557373,0.768799,0.00,0.00,0.00
274,0.129771,0.236641,-0.183206,-0.297119,-0.554932,0.756104,0.00,0.00,0.00
275,-0.213740,0.267176,-0.259542,-0.289551,-0.551514,0.764893,0.00,0.00,0.00
276,-0.259542,0.351145,-0.091603,-0.294434,-0.556885,0.773926,0.00,0.00,0.00
277,-0.229008,0.305344,0.076336,-0.292480,-0.560547,0.759766,0.00,0.00,0.00
278,-0.083969,0.534351,0.030534,-0.288818,-0.555420,0.769775,0.00,0.00,0.00
279,-0.183206,0.442748,0.076336,-0.297119,-0.553711,0.760742,0.00,0.00,0.00
280,-0.267176,0.435115,0.076336,-0.294434,-0.553711,0.770264,0.00,0.00,0.00
281,-0.236641,0.480916,0.122137,-0.286133,-0.557373,0.759766,0.00,0.00,0.00
282,-0.244275,0.213740,0.022901,-0.300537,-0.556641,0.761719,0.00,0.00,0.00
283,-0.068702,0.282443,0.038168,-0.301025,-0.558350,0.755127,0.00,0.00,0.00
284,-0.244275,0.229008,-0.038168,-0.297363,-0.553711,0.764404,0.00,0.00,0.00
285,-0.190840,0.320611,0.122137,-0.292969,-0.551270,0.760010,0.00,0.00,0.00
286,-0.167939,0.129771,0.000000,-0.300781,-0.554199,0.762695,0.00,0.00,0.00
287,-0.198473,0.213740,-0.061069,-0.298096,-0.553223,0.760254,0.00,0.00,0.00
288,-0.175573,0.122137,0.068702,-0.299316,-0.556641,0.760498,0.00,0.00,0.00
289,-0.122137,0.229008,-0.061069,-0.292480,-0.557373,0.759766,0.00,0.00,0.00
290,-0.152672,0.030534,0.007634,-0.293701,-0.549072,0.760254,0.00,0.00,0.00
291,0.091603,0.312977,-0.015267,-0.291748,-0.552979,0.761475,0.00,0.00,0.00
292,-0.022901,0.312977,-0.022901,-0.306641,-0.549316,0.771240,0.00,0.00,0.00
293,0.007634,0.427481,-0.129771,-0.296631,-0.554932,0.756836,0.00,0.00,0.00
294,0.114504,0.251908,-0.053435,-0.300781,-0.548584,0.771484,0.00,0.00,0.00
295,0.030534,0.290076,-0.206107,-0.301514,-0.556641,0.762695,0.00,0.00,0.00
296,-0.015267,0.251908,0.076336,-0.298828,-0.557129,0.768555,0.00,0.00,0.00
297,0.022901,0.129771,-0.053435,-0.299316,-0.549316,0.761719,0.00,0.00,0.00
298,-0.045802,0.282443,-0.061069,-0.301025,-0.552002,0.754395,0.00,0.00,0.00
299,-0.030534,0.251908,0.022901,-0.297852,-0.556152,0.763916,0.00,0.00,0.00
300,0.251908,0.473282,-0.053435,-0.299316,-0.558838,0.764160,0.00,0.00,0.00
301,0.099237,0.282443,-0.030534,-0.289551,-0.555420,0.760010,0.00,0.00,0.00
302,-0.015267,0.152672,-0.106870,-0.300049,-0.549072,0.760498,0.00,0.00,0.00
303,0.045802,0.198473,-0.114504,-0.294922,-0.555908,0.766357,0.00,0.00,0.00
304,0.083969,0.061069,0.007634,-0.293701,-0.551758,0.771973,0.00,0.00,0.00
305,-0.114504,0.229008,-0.038168,-0.300293,-0.555420,0.777100,0.00,0.00,0.00
306,0.083969,0.167939,-0.030534,-0.299316,-0.552002,0.762207,0.00,0.00,0.00
307,0.038168,0.267176,-0.145038,-0.302734,-0.558838,0.761719,0.00,0.00,0.00
308,0.030534,0.091603,-0.099237,-0.297363,-0.551514,0.766357,0.00,0.00,0.00
309,0.030534,-0.061069,-0.091603,-0.305664,-0.552979,0.755615,0.00,0.00,0.00
310,0.083969,-0.145038,-0.198473,-0.298828,-0.556885,0.762451,0.00,0.00,0.00
311,0.114504,0.000000,-0.396947,-0.292725,-0.560059,0.762695,0.00,0.00,0.00
312,0.251908,-0.122137,-0.328244,-0.301270,-0.557129,0.761475,0.00,0.00,0.00
313,0.335878,-0.091603,-0.236641,-0.298340,-0.559814,0.756104,0.00,0.00,0.00
314,0.038168,-0.045802,-0.358779,-0.298096,-0.553955,0.761230,0.00,0.00,0.00
315,0.206107,-0.198473,-0.427481,-0.295166,-0.554443,0.757080,0.00,0.00,0.00
316,0.122137,-0.076336,-0.473282,-0.295410,-0.558105,0.758789,0.00,0.00,0.00
317,0.183206,-0.221374,-0.312977,-0.303467,-0.552490,0.762207,0.00,0.00,0.00
318,0.091603,-0.328244,-0.221374,-0.303223,-0.554688,0.767090,0.00,0.00,0.00
319,0.335878,0.488550,-0.885496,-0.286621,-0.550781,0.752197,0.00,0.00,0.00
320,-3.977099,-4.358779,1.793893,-0.282227,-0.799316,0.822754,0.00,0.00,0.00
321,0.229008,-1.488550,-0.832061,-0.246338,-0.551270,0.920166,0.00,0.00,0.00
322,0.267176,-0.145038,-0.809160,-0.256836,-0.603760,0.731201,0.00,0.00,0.00
323,0.648855,0.282443,0.175573,-0.282715,-0.568359,0.753906,0.00,0.00,0.00
324,-0.267176,0.137405,-0.221374,-0.341797,-0.537842,0.761475,0.00,0.00,0.00
325,-0.167939,0.175573,-0.213740,-0.279785,-0.562256,0.757812,0.00,0.00,0.00
326,0.160305,0.053435,-0.114504,-0.277832,-0.550781,0.771240,0.00,0.00,0.00
327,-0.114504,0.015267,-0.137405,-0.293701,-0.563965,0.757812,0.00,0.00,0.00
328,-0.251908,0.328244,-0.167939,-0.308838,-0.559326,0.753418,0.00,0.00,0.00
329,-0.435115,0.030534,-0.022901,-0.310059,-0.557617,0.764893,0.00,0.00,0.00
330,-0.229008,0.282443,-0.083969,-0.285156,-0.556641,0.751221,0.00,0.00,0.00
331,-0.366412,0.320611,-0.045802,-0.291260,-0.560303,0.758545,0.00,0.00,0.00
332,-0.351145,0.061069,-0.091603,-0.300293,-0.556396,0.759277,0.00,0.00,0.00
333,-0.374046,0.343511,-0.045802,-0.302002,-0.559570,0.769287,0.00,0.00,0.00
334,-0.335878,0.083969,-0.099237,-0.300537,-0.557373,0.758789,0.00,0.00,0.00
335,-0.328244,0.328244,-0.015267,-0.292480,-0.555664,0.764893,0.00,0.00,0.00
336,-0.404580,0.213740,-0.137405,-0.293701,-0.555176,0.754883,0.00,0.00,0.00
337,-0.374046,0.251908,-0.045802,-0.295166,-0.560547,0.763672,0.00,0.00,0.00
338,-0.099237,0.030534,-0.015267,-0.300293,-0.555176,0.767578,0.00,0.00,0.00
339,-0.221374,-0.473282,-0.099237,-0.299561,-0.552490,0.758057,0.00,0.00,0.00
340,-0.122137,-0.442748,-0.122137,-0.307861,-0.555176,0.768311,0.00,0.00,0.00
341,-0.145038,-0.778626,-0.328244,-0.305176,-0.553711,0.757324,0.00,0.00,0.00
342,-0.061069,-0.709924,-0.267176,-0.289795,-0.558105,0.770996,0.00,0.00,0.00
343,0.122137,0.702290,-0.419847,-0.243896,-0.583496,0.766846,0.00,0.00,0.00
344,-2.328244,-0.732824,0.946565,-0.355469,-0.588135,0.820557,0.00,0.00,0.00
345,0.335878,-1.030534,-0.648855,-0.343262,-0.509521,0.813721,0.00,0.00,0.00
346,-0.519084,-0.290076,-0.564885,-0.286621,-0.572266,0.750732,0.00,0.00,0.00
347,-0.145038,-0.610687,-0.206107,-0.280029,-0.563721,0.770752,0.00,0.00,0.00
348,-0.511450,-0.122137,0.328244,-0.285156,-0.546631,0.773682,0.00,0.00,0.00
349,-1.099237,-0.068702,0.053435,-0.305908,-0.545166,0.762939,0.00,0.00,0.00
350,-1.152672,-0.282443,-0.038168,-0.288574,-0.561035,0.754639,0.00,0.00,0.00
351,-0.832061,-0.061069,0.190840,-0.291992,-0.564941,0.754639,0.00,0.00,0.00
352,-1.129771,-0.374046,0.061069,-0.298096,-0.553467,0.755371,0.00,0.00,0.00
353,-0.938931,0.335878,0.404580,-0.301270,-0.552734,0.760498,0.00,0.00,0.00
354,-1.152672,0.083969,0.282443,-0.296631,-0.556641,0.763916,0.00,0.00,0.00
355,-1.183206,0.083969,0.274809,-0.292480,-0.551758,0.767822,0.00,0.00,0.00
356,-0.977099,0.030534,0.229008,-0.290283,-0.556641,0.765137,0.00,0.00,0.00
357,-1.381679,0.145038,0.442748,-0.291260,-0.552246,0.772461,0.00,0.00,0.00
358,-1.190840,0.183206,0.244275,-0.296875,-0.558838,0.756104,0.00,0.00,0.00
359,-1.290076,-0.106870,0.519084,-0.295898,-0.549072,0.768555,0.00,0.00,0.00
360,-1.022901,0.083969,0.419847,-0.295410,-0.554932,0.760498,0.00,0.00,0.00
361,-1.099237,-0.007634,0.389313,-0.291992,-0.553711,0.762207,0.00,0.00,0.00
362,-1.190840,0.251908,0.305344,-0.286377,-0.556641,0.770752,0.00,0.00,0.00
363,-1.015267,0.251908,0.465649,-0.301025,-0.552979,0.755371,0.00,0.00,0.00
364,-0.946565,-0.038168,0.282443,-0.305176,-0.553223,0.757568,0.00,0.00,0.00
365,-0.900763,-0.137405,0.129771,-0.313965,-0.549316,0.754639,0.00,0.00,0.00
366,-0.404580,-0.312977,-0.099237,-0.318115,-0.555908,0.753662,0.00,0.00,0.00
367,0.091603,-0.702290,-0.496183,-0.308838,-0.552490,0.748291,0.00,0.00,0.00
368,0.305344,-0.793893,-0.877863,-0.316162,-0.550293,0.750488,0.00,0.00,0.00
369,0.679389,-1.045802,-0.961832,-0.315430,-0.547119,0.757812,0.00,0.00,0.00
370,0.885496,-0.984733,-1.015267,-0.312256,-0.550537,0.753418,0.00,0.00,0.00
371,0.923664,-1.236641,-1.091603,-0.302002,-0.562988,0.756104,0.00,0.00,0.00
372,1.236641,-1.290076,-1.198473,-0.301025,-0.562500,0.751221,0.00,0.00,0.00
373,1.236641,-1.206107,-1.167939,-0.298584,-0.556641,0.759521,0.00,0.00,0.00
374,1.320611,-1.175573,-1.229008,-0.301270,-0.557129,0.757324,0.00,0.00,0.00
375,1.374046,-1.175573,-1.198473,-0.300049,-0.551270,0.753662,0.00,0.00,0.00
376,1.709924,-1.458015,-1.236641,-0.307129,-0.561279,0.758789,0.00,0.00,0.00
377,1.717557,-1.519084,-1.297710,-0.309570,-0.560303,0.755859,0.00,0.00,0.00
378,2.076336,-1.862595,-1.687023,-0.306396,-0.553955,0.757324,0.00,0.00,0.00
379,1.862595,-1.923664,-1.396947,-0.293701,-0.563721,0.758057,0.00,0.00,0.00
380,1.938931,-1.732824,-1.297710,-0.282471,-0.553711,0.757080,0.00,0.00,0.00
381,1.664122,-1.480916,-1.022901,-0.275635,-0.564209,0.758301,0.00,0.00,0.00
382,1.801527,-1.122137,-0.755725,-0.280273,-0.550537,0.766602,0.00,0.00,0.00
383,1.290076,-0.977099,-0.519084,-0.285400,-0.557373,0.763184,0.00,0.00,0.00
384,1.221374,-0.534351,-0.251908,-0.282959,-0.551025,0.763184,0.00,0.00,0.00
385,0.877863,-0.343511,-0.145038,-0.287109,-0.560303,0.774414,0.00,0.00,0.00
386,0.633588,-0.022901,0.175573,-0.292725,-0.559814,0.761230,0.00,0.00,0.00
387,0.190840,0.358779,0.167939,-0.287842,-0.554443,0.764893,0.00,0.00,0.00
388,-0.030534,0.267176,0.274809,-0.289795,-0.559326,0.766357,0.00,0.00,0.00
389,-0.045802,0.519084,0.305344,-0.290039,-0.554932,0.767578,0.00,0.00,0.00
390,-0.358779,0.816794,0.396947,-0.289795,-0.556641,0.777832,0.00,0.00,0.00
391,-0.618321,1.534351,0.801527,-0.288574,-0.560791,0.762939,0.00,0.00,0.00
392,-1.167939,2.282443,1.145038,-0.282959,-0.557861,0.779297,0.00,0.00,0.00
393,-1.198473,2.885496,1.099237,-0.292236,-0.558838,0.773682,0.00,0.00,0.00
394,-1.473282,3.221374,1.328244,-0.300293,-0.551758,0.764648,0.00,0.00,0.00
395,-0.748092,4.343511,1.351145,-0.291992,-0.559326,0.738281,0.00,0.00,0.00
396,-2.183206,4.549618,1.992366,-0.277100,-0.565674,0.755615,0.00,0.00,0.00
397,-1.832061,4.564885,2.541985,-0.274170,-0.555908,0.766846,0.00,0.00,0.00
398,-2.007634,4.435115,2.687023,-0.289795,-0.556396,0.758545,0.00,0.00,0.00
399,-1.832061,3.984733,2.496183,-0.310059,-0.548096,0.764160,0.00,0.00,0.00
400,-1.694656,3.618321,2.267176,-0.314209,-0.553711,0.746094,0.00,0.00,0.00
401,-1.206107,3.129771,2.053435,-0.315674,-0.549805,0.746826,0.00,0.00,0.00
402,-1.290076,2.755725,1.763359,-0.299316,-0.548828,0.760742,0.00,0.00,0.00
403,-0.862595,2.267176,1.709924,-0.300049,-0.556641,0.753174,0.00,0.00,0.00
404,-0.381679,1.687023,1.450382,-0.320068,-0.550781,0.747070,0.00,0.00,0.00
405,0.358779,1.129771,1.053435,-0.328125,-0.552490,0.740723,0.00,0.00,0.00
406,0.290076,1.152672,0.854962,-0.313477,-0.551758,0.747070,0.00,0.00,0.00
407,0.549618,0.717557,0.778626,-0.297119,-0.556885,0.749512,0.00,0.00,0.00
408,0.625954,0.801527,1.099237,-0.282715,-0.554688,0.768555,0.00,0.00,0.00
409,0.534351,0.595420,1.312977,-0.297119,-0.557861,0.755615,0.00,0.00,0.00
410,0.687023,0.137405,1.572519,-0.307129,-0.551514,0.752197,0.00,0.00,0.00
411,0.961832,0.229008,1.022901,-0.333740,-0.551514,0.755615,0.00,0.00,0.00
412,1.923664,-0.862595,-0.122137,-0.341797,-0.549072,0.746826,0.00,0.00,0.00
413,1.229008,-0.381679,0.450382,-0.281250,-0.549072,0.767578,0.00,0.00,0.00
414,1.564885,-0.618321,0.145038,-0.287109,-0.554688,0.769043,0.00,0.00,0.00
415,1.496183,-0.351145,0.381679,-0.280518,-0.554199,0.769043,0.00,0.00,0.00
416,1.564885,-0.129771,0.442748,-0.276611,-0.559082,0.757568,0.00,0.00,0.00
417,1.328244,0.328244,0.931298,-0.280762,-0.543213,0.769043,0.00,0.00,0.00
418,1.106870,0.885496,1.030534,-0.298828,-0.549805,0.771484,0.00,0.00,0.00
419,1.129771,1.045802,1.114504,-0.300293,-0.555664,0.752930,0.00,0.00,0.00
420,1.083969,1.282443,1.267176,-0.302490,-0.552979,0.757324,0.00,0.00,0.00
421,1.022901,1.267176,1.167939,-0.304932,-0.555664,0.765625,0.00,0.00,0.00
422,0.862595,1.374046,1.312977,-0.281494,-0.555420,0.772461,0.00,0.00,0.00
423,1.145038,1.259542,1.129771,-0.288818,-0.549805,0.763916,0.00,0.00,0.00
424,1.328244,1.198473,1.198473,-0.300781,-0.551270,0.758789,0.00,0.00,0.00
425,1.251908,1.305344,1.404580,-0.320557,-0.548828,0.758789,0.00,0.00,0.00
426,1.641221,0.923664,0.961832,-0.329590,-0.558105,0.758057,0.00,0.00,0.00
427,1.320611,1.190840,1.129771,-0.302246,-0.549316,0.760254,0.00,0.00,0.00
428,1.366412,1.045802,0.786260,-0.303467,-0.551270,0.759033,0.00,0.00,0.00
429,1.473282,1.091603,1.053435,-0.295898,-0.544678,0.771973,0.00,0.00,0.00
430,1.549618,0.824427,0.709924,-0.311523,-0.553711,0.758057,0.00,0.00,0.00
431,1.717557,0.625954,0.641221,-0.311279,-0.548340,0.750732,0.00,0.00,0.00
432,1.580153,0.488550,0.404580,-0.309326,-0.550049,0.757812,0.00,0.00,0.00
433,1.717557,0.396947,0.290076,-0.307373,-0.552490,0.767334,0.00,0.00,0.00
434,1.641221,-0.015267,0.183206,-0.302246,-0.552734,0.770020,0.00,0.00,0.00
435,1.603053,0.198473,0.244275,-0.290283,-0.559814,0.766846,0.00,0.00,0.00
436,1.366412,0.167939,0.389313,-0.283447,-0.550537,0.767090,0.00,0.00,0.00
437,1.404580,-0.083969,0.259542,-0.307373,-0.556885,0.765381,0.00,0.00,0.00
438,0.977099,0.083969,0.351145,-0.312988,-0.554688,0.776611,0.00,0.00,0.00
439,1.206107,-0.267176,0.083969,-0.310303,-0.550049,0.768555,0.00,0.00,0.00
440,1.045802,0.152672,0.236641,-0.312988,-0.555176,0.765137,0.00,0.00,0.00
441,0.984733,0.061069,0.305344,-0.315186,-0.550537,0.768799,0.00,0.00,0.00
442,0.923664,0.015267,0.030534,-0.312500,-0.552002,0.771240,0.00,0.00,0.00
443,0.763359,-0.022901,-0.061069,-0.307861,-0.551758,0.766602,0.00,0.00,0.00
444,0.816794,-0.068702,-0.015267,-0.296631,-0.550293,0.759033,0.00,0.00,0.00
445,0.290076,-0.099237,-0.122137,-0.290771,-0.552979,0.776855,0.00,0.00,0.00
446,0.274809,0.167939,0.053435,-0.290527,-0.551514,0.767822,0.00,0.00,0.00
447,0.244275,0.198473,0.114504,-0.291748,-0.551514,0.776855,0.00,0.00,0.00
448,0.137405,0.297710,0.251908,-0.297119,-0.552979,0.769287,0.00,0.00,0.00
449,-0.145038,0.458015,0.297710,-0.306641,-0.553467,0.763672,0.00,0.00,0.00
450,-0.145038,0.496183,0.312977,-0.297852,-0.553223,0.765137,0.00,0.00,0.00
451,-0.068702,0.557252,0.251908,-0.295166,-0.549805,0.769531,0.00,0.00,0.00
452,-0.068702,0.465649,0.312977,-0.297119,-0.553223,0.766113,0.00,0.00,0.00
453,-0.015267,0.473282,0.099237,-0.307373,-0.550537,0.759766,0.00,0.00,0.00
454,-0.099237,0.465649,0.068702,-0.310547,-0.549561,0.770508,0.00,0.00,0.00
455,0.068702,0.374046,0.198473,-0.305908,-0.558350,0.764404,0.00,0.00,0.00
456,0.183206,0.145038,0.038168,-0.307617,-0.554443,0.750488,0.00,0.00,0.00
457,0.458015,-0.106870,-0.160305,-0.308105,-0.551270,0.750244,0.00,0.00,0.00
458,0.595420,-0.564885,-0.076336,-0.314941,-0.550293,0.763672,0.00,0.00,0.00
459,1.045802,-1.053435,-0.648855,-0.320312,-0.555664,0.754639,0.00,0.00,0.00
460,1.450382,-1.541985,-0.801527,-0.317627,-0.554932,0.751953,0.00,0.00,0.00
461,1.427481,-1.488550,-0.984733,-0.305664,-0.549316,0.755127,0.00,0.00,0.00
462,1.282443,-1.488550,-0.969466,-0.300293,-0.549316,0.760254,0.00,0.00,0.00
463,1.305344,-1.351145,-0.740458,-0.304443,-0.549316,0.764160,0.00,0.00,0.00
464,1.198473,-1.030534,-0.717557,-0.304443,-0.559570,0.767090,0.00,0.00,0.00
465,1.190840,-0.908397,-0.603053,-0.305908,-0.550537,0.762207,0.00,0.00,0.00
466,1.106870,-0.755725,-0.664122,-0.299316,-0.545898,0.775879,0.00,0.00,0.00
467,0.893130,-0.664122,-0.633588,-0.299805,-0.552979,0.774414,0.00,0.00,0.00
468,0.679389,-0.282443,-0.404580,-0.286377,-0.545410,0.769043,0.00,0.00,0.00
469,0.419847,-0.198473,0.007634,-0.293701,-0.549805,0.766846,0.00,0.00,0.00
470,0.526718,-0.015267,0.007634,-0.289551,-0.551270,0.764893,0.00,0.00,0.00
471,0.961832,-0.099237,-0.312977,-0.304199,-0.550293,0.761963,0.00,0.00,0.00
472,0.916031,-0.038168,-0.068702,-0.302490,-0.544189,0.759033,0.00,0.00,0.00
473,1.007634,-0.053435,-0.335878,-0.307373,-0.547852,0.756592,0.00,0.00,0.00
474,1.274809,-0.190840,-0.366412,-0.303711,-0.551270,0.758789,0.00,0.00,0.00
475,1.595420,-0.305344,-0.351145,-0.302002,-0.546387,0.760254,0.00,0.00,0.00
476,1.290076,-0.106870,-0.351145,-0.298340,-0.551514,0.768311,0.00,0.00,0.00
477,1.473282,0.129771,-0.442748,-0.294434,-0.552490,0.758789,0.00,0.00,0.00
478,1.213740,0.320611,-0.167939,-0.297119,-0.546143,0.771729,0.00,0.00,0.00
479,0.916031,0.748092,-0.244275,-0.309570,-0.552246,0.767090,0.00,0.00,0.00
480,0.656489,1.274809,0.022901,-0.300049,-0.539307,0.769531,0.00,0.00,0.00
481,0.519084,1.419847,0.335878,-0.302490,-0.547363,0.761963,0.00,0.00,0.00
482,0.213740,1.893130,0.358779,-0.302734,-0.546387,0.761963,0.00,0.00,0.00
483,0.427481,1.847328,0.267176,-0.290283,-0.552734,0.769287,0.00,0.00,0.00
484,0.099237,2.236641,0.503817,-0.293457,-0.553467,0.763916,0.00,0.00,0.00
485,0.015267,2.251908,0.618321,-0.278076,-0.552734,0.765625,0.00,0.00,0.00
486,-0.732824,2.641221,1.053435,-0.265381,-0.550537,0.785889,0.00,0.00,0.00
487,-0.885496,3.503817,1.778626,-0.243896,-0.554932,0.780029,0.00,0.00,0.00
488,-1.511450,4.091603,2.251908,-0.273438,-0.551758,0.777100,0.00,0.00,0.00
489,-1.969466,5.229008,2.748092,-0.276611,-0.553223,0.772461,0.00,0.00,0.00
490,-1.954198,5.610687,3.236641,-0.279297,-0.558594,0.765137,0.00,0.00,0.00
491,-2.312977,6.106870,3.465649,-0.293945,-0.543457,0.786865,0.00,0.00,0.00
492,-2.458015,5.755725,3.351145,-0.319336,-0.551270,0.771973,0.00,0.00,0.00
493,-2.244275,5.427481,2.923664,-0.324951,-0.550293,0.755859,0.00,0.00,0.00
494,-0.954198,4.183206,2.030534,-0.345459,-0.568115,0.742920,0.00,0.00,0.00
495,-1.534351,4.549618,2.312977,-0.303955,-0.534912,0.774658,0.00,0.00,0.00
496,-1.274809,3.709924,1.618321,-0.315918,-0.554932,0.753662,0.00,0.00,0.00
497,-0.496183,3.022901,1.152672,-0.335938,-0.565186,0.746338,0.00,0.00,0.00
498,-1.106870,3.419847,1.671756,-0.320557,-0.538330,0.769775,0.00,0.00,0.00
499,-1.038168,2.625954,1.320611,-0.315430,-0.568359,0.743164,0.00,0.00,0.00
500,0.122137,1.809160,0.603053,-0.329590,-0.553955,0.748047,0.00,0.00,0.00
501,-0.610687,1.221374,0.259542,-0.333008,-0.538818,0.751709,0.00,0.00,0.00
502,0.022901,1.251908,-0.679389,-0.335693,-0.537109,0.737549,0.00,0.00,0.00
503,-0.312977,0.961832,-0.526718,-0.338135,-0.547119,0.742432,0.00,0.00,0.00
504,0.106870,-0.648855,-1.007634,-0.312744,-0.543457,0.750732,0.00,0.00,0.00
505,0.404580,-0.801527,-1.389313,-0.314941,-0.543457,0.749756,0.00,0.00,0.00
506,0.328244,-1.572519,-1.351145,-0.324219,-0.553955,0.744629,0.00,0.00,0.00
507,0.274809,-1.038168,-2.007634,-0.300049,-0.551270,0.756836,0.00,0.00,0.00
508,0.160305,-1.732824,-1.374046,-0.299072,-0.570312,0.750732,0.00,0.00,0.00
509,-0.366412,-0.328244,-1.687023,-0.300781,-0.528320,0.791016,0.00,0.00,0.00
510,-0.221374,-0.343511,-1.519084,-0.305176,-0.561035,0.750732,0.00,0.00,0.00
511,-1.053435,0.572519,-1.870229,-0.295166,-0.531250,0.792480,0.00,0.00,0.00
512,-1.068702,0.045802,-1.969466,-0.306396,-0.552734,0.739502,0.00,0.00,0.00
513,-2.091603,0.038168,-1.687023,-0.302734,-0.546143,0.767334,0.00,0.00,0.00
514,-1.992366,-0.167939,-1.854962,-0.311768,-0.550537,0.768555,0.00,0.00,0.00
515,-2.725191,-0.068702,-2.221374,-0.310547,-0.543945,0.767334,0.00,0.00,0.00
516,-2.427481,-0.122137,-2.320611,-0.321289,-0.548828,0.762451,0.00,0.00,0.00
517,-3.145038,-0.374046,-2.709924,-0.326904,-0.540771,0.765869,0.00,0.00,0.00
518,-2.839695,-1.015267,-3.297710,-0.331787,-0.564697,0.748779,0.00,0.00,0.00
519,-3.152672,-1.625954,-3.427481,-0.308594,-0.538086,0.768066,0.00,0.00,0.00
520,-3.404580,-1.511450,-3.778626,-0.315674,-0.552490,0.765869,0.00,0.00,0.00
521,-3.473282,-0.992366,-3.786260,-0.298096,-0.546631,0.763428,0.00,0.00,0.00
522,-3.854962,-0.786260,-3.839695,-0.306152,-0.551514,0.762939,0.00,0.00,0.00
523,-4.152672,-0.709924,-3.786260,-0.309326,-0.556396,0.769043,0.00,0.00,0.00
524,-4.488550,-0.229008,-3.847328,-0.308105,-0.552246,0.770264,0.00,0.00,0.00
525,-4.641221,0.114504,-3.732824,-0.312500,-0.561279,0.756592,0.00,0.00,0.00
526,-5.160305,0.587786,-3.641221,-0.311279,-0.558838,0.760010,0.00,0.00,0.00
527,-5.557252,1.229008,-3.923664,-0.307129,-0.563232,0.766357,0.00,0.00,0.00
528,-5.961832,1.290076,-3.778626,-0.313965,-0.553467,0.761963,0.00,0.00,0.00
529,-6.206107,1.931298,-3.984733,-0.326904,-0.553223,0.774902,0.00,0.00,0.00
530,-6.641221,1.893130,-3.885496,-0.312256,-0.549805,0.755615,0.00,0.00,0.00
531,-6.839695,2.572519,-3.984733,-0.317139,-0.552002,0.772949,0.00,0.00,0.00
532,-7.641221,2.778626,-3.877863,-0.299072,-0.555664,0.776611,0.00,0.00,0.00
533,-8.374046,3.694656,-3.938931,-0.302979,-0.551514,0.771729,0.00,0.00,0.00
534,-9.290076,4.229008,-3.877863,-0.303223,-0.551270,0.784668,0.00,0.00,0.00
535,-10.244275,5.465649,-4.061069,-0.300781,-0.530029,0.809326,0.00,0.00,0.00
536,-13.633588,7.541985,-4.496183,-0.318359,-0.546143,0.815674,0.00,0.00,0.00
537,-16.572519,10.068702,-4.167939,-0.293701,-0.541992,0.848145,0.00,0.00,0.00
538,-21.427481,13.381679,-4.580153,-0.326904,-0.517090,0.868896,0.00,0.00,0.00
539,-27.603053,16.427481,-5.473282,-0.338623,-0.497070,0.904541,0.00,0.00,0.00
540,-33.580153,20.045802,-7.274809,-0.360840,-0.489990,0.899170,0.00,0.00,0.00
541,-39.404580,22.328244,-9.778626,-0.393066,-0.478271,0.898193,0.00,0.00,0.00
542,-45.351145,22.832061,-12.725191,-0.422363,-0.453613,0.898193,0.00,0.00,0.00
543,-53.030534,25.343511,-12.442748,-0.302490,-0.455566,0.925293,0.00,0.00,0.00
544,-57.877863,25.519084,-15.160305,-0.360596,-0.500732,0.928467,0.00,0.00,0.00
545,-65.267176,27.435115,-15.854962,-0.324463,-0.499023,0.903320,0.00,0.00,0.00
546,-72.076336,29.870229,-16.824427,-0.305664,-0.497803,0.944092,0.00,0.00,0.00
547,-79.839695,30.129771,-17.557252,-0.347168,-0.502686,0.938721,0.00,0.00,0.00
548,-87.748092,30.160305,-19.480916,-0.365479,-0.490234,0.933105,0.00,0.00,0.00
549,-94.641221,31.793893,-21.282443,-0.357178,-0.511475,0.928711,0.00,0.00,0.00
550,-101.603053,31.618321,-23.458015,-0.370117,-0.514404,0.921875,0.00,0.00,0.00
551,-106.832061,32.427481,-25.129771,-0.368164,-0.526367,0.897461,0.00,0.00,0.00
552,-113.908397,31.732824,-27.015267,-0.357666,-0.551758,0.902344,0.00,0.00,0.00
553,-120.290076,32.580153,-29.664122,-0.343750,-0.527100,0.903076,0.00,0.00,0.00
554,-127.412214,32.793893,-31.244275,-0.364746,-0.572510,0.909180,0.00,0.00,0.00
555,-135.114504,34.282443,-32.961832,-0.360840,-0.593262,0.903809,0.00,0.00,0.00
556,-142.099237,37.435115,-36.519084,-0.393799,-0.597656,0.911865,0.00,0.00,0.00
557,-149.908397,40.000000,-39.725191,-0.430664,-0.624023,0.897461,0.00,0.00,0.00
558,-155.625954,45.549618,-43.908397,-0.448242,-0.648193,0.871826,0.00,0.00,0.00
559,-160.229008,49.969466,-47.679389,-0.488525,-0.668701,0.844971,0.00,0.00,0.00
560,-165.931298,56.496183,-52.358779,-0.520508,-0.697021,0.834961,0.00,0.00,0.00
561,-169.534351,63.824427,-57.694656,-0.556885,-0.724609,0.831543,0.00,0.00,0.00
562,-172.740458,69.595420,-63.877863,-0.592285,-0.789062,0.832275,0.00,0.00,0.00
563,-174.778626,77.480916,-69.587786,-0.599609,-0.805420,0.810791,0.00,0.00,0.00
564,-175.847328,87.763359,-74.954198,-0.644531,-0.859375,0.833008,0.00,0.00,0.00
565,-175.480916,92.068702,-82.099237,-0.746826,-0.938232,0.843506,0.00,0.00,0.00
566,-173.648855,91.900763,-89.236641,-0.813477,-0.964111,0.872314,0.00,0.00,0.00
567,-168.977099,87.931298,-98.908397,-0.885010,-1.030273,0.890137,0.00,0.00,0.00
568,-164.809160,80.816794,-107.206107,-0.920410,-1.036621,0.889893,0.00,0.00,0.00
569,-162.305344,71.870229,-117.587786,-0.868408,-1.030518,0.862793,0.00,0.00,0.00
570,-159.290076,68.167939,-124.450382,-0.764648,-0.955566,0.823975,0.00,0.00,0.00
571,-157.137405,66.206107,-128.465649,-0.704102,-0.922607,0.844482,0.00,0.00,0.00
572,-155.526718,65.824427,-131.541985,-0.695068,-0.974365,0.797363,0.00,0.00,0.00
573,-155.297710,65.603053,-134.557252,-0.612061,-0.886475,0.793945,0.00,0.00,0.00
574,-153.580153,67.122137,-134.122137,-0.544189,-0.902100,0.824951,0.00,0.00,0.00
575,-151.053435,71.099237,-131.519084,-0.495361,-0.928955,0.840820,0.00,0.00,0.00
576,-146.755725,75.335878,-128.183206,-0.455811,-0.945312,0.844727,0.00,0.00,0.00
577,-138.664122,80.977099,-124.076336,-0.434814,-0.979004,0.845947,0.00,0.00,0.00
578,-127.045802,86.015267,-118.122137,-0.408936,-0.842773,0.880859,0.00,0.00,0.00
579,-113.099237,87.236641,-112.900763,-0.481934,-0.768799,0.981689,0.00,0.00,0.00
580,-98.145038,87.343511,-106.908397,-0.473633,-0.703369,1.025391,0.00,0.00,0.00
581,-82.809160,86.564885,-103.236641,-0.452393,-0.541992,1.035156,0.00,0.00,0.00
582,-71.015267,83.511450,-102.312977,-0.451416,-0.312012,1.061523,0.00,0.00,0.00
583,-63.282443,81.977099,-104.748092,-0.437256,-0.139404,1.053223,0.00,0.00,0.00
584,-66.847328,81.709924,-109.358779,-0.309082,-0.381836,0.985596,0.00,0.00,0.00
585,-59.358779,81.526718,-106.603053,-0.360352,-0.606689,0.969727,0.00,0.00,0.00
586,-36.961832,83.549618,-97.793893,-0.317383,-0.442383,1.031494,0.00,0.00,0.00
587,-21.251908,85.954198,-94.358779,-0.256836,-0.208496,0.944336,0.00,0.00,0.00
588,-12.709924,86.503817,-92.358779,-0.250488,-0.192383,0.990967,0.00,0.00,0.00
589,-0.007634,89.007634,-89.412214,-0.231934,-0.172119,0.965088,0.00,0.00,0.00
590,12.167939,92.343511,-87.664122,-0.206299,-0.099121,0.915771,0.00,0.00,0.00
591,22.000000,94.625954,-85.717557,-0.179199,-0.047363,0.874268,0.00,0.00,0.00
592,32.755725,97.656489,-83.091603,-0.164307,-0.025146,0.823242,0.00,0.00,0.00
593,42.122137,98.969466,-80.618321,-0.167969,0.002441,0.830322,0.00,0.00,0.00
594,50.656489,98.969466,-77.946565,-0.184326,0.015381,0.812744,0.00,0.00,0.00
595,58.427481,97.885496,-74.725191,-0.195312,0.029053,0.811768,0.00,0.00,0.00
596,65.908397,94.900763,-71.610687,-0.218262,0.024170,0.808838,0.00,0.00,0.00
597,73.732824,91.343511,-67.763359,-0.231201,-0.007080,0.812012,0.00,0.00,0.00
598,81.251908,87.007634,-63.152672,-0.229248,-0.005615,0.820068,0.00,0.00,0.00
599,88.687023,83.618321,-58.022901,-0.218994,-0.017578,0.812744,0.00,0.00,0.00
600,95.900763,80.374046,-52.305344,-0.208496,-0.021240,0.809082,0.00,0.00,0.00
601,103.534351,77.969466,-46.137405,-0.211182,-0.047607,0.789551,0.00,0.00,0.00
602,109.320611,75.961832,-40.198473,-0.217529,-0.069824,0.774414,0.00,0.00,0.00
603,115.496183,73.106870,-32.206107,-0.229248,-0.076416,0.791260,0.00,0.00,0.00
604,120.656489,69.488550,-23.717557,-0.248291,-0.081543,0.788086,0.00,0.00,0.00
605,125.022901,65.564885,-14.564885,-0.261230,-0.084961,0.798828,0.00,0.00,0.00
606,128.435115,61.519084,-4.244275,-0.266602,-0.106201,0.819336,0.00,0.00,0.00
607,132.183206,57.511450,6.251908,-0.266113,-0.137207,0.820312,0.00,0.00,0.00
608,134.106870,53.893130,17.412214,-0.254883,-0.163086,0.823242,0.00,0.00,0.00
609,137.015267,50.740458,27.954198,-0.258301,-0.203613,0.836670,0.00,0.00,0.00
610,139.587786,48.793893,36.068702,-0.239990,-0.231689,0.828125,0.00,0.00,0.00
611,142.076336,46.541985,45.709924,-0.223145,-0.270996,0.842285,0.00,0.00,0.00
612,144.770992,44.725191,54.923664,-0.208496,-0.308105,0.840820,0.00,0.00,0.00
613,147.450382,42.824427,62.938931,-0.201660,-0.333984,0.864258,0.00,0.00,0.00
614,149.564885,40.610687,69.603053,-0.178955,-0.378662,0.871582,0.00,0.00,0.00
615,151.740458,38.862595,75.091603,-0.158447,-0.433594,0.865234,0.00,0.00,0.00
616,153.664122,37.320611,79.053435,-0.120361,-0.475098,0.881104,0.00,0.00,0.00
617,155.984733,36.770992,81.687023,-0.106689,-0.517334,0.899170,0.00,0.00,0.00
618,158.175573,36.419847,83.053435,-0.102051,-0.550781,0.902100,0.00,0.00,0.00
619,160.297710,36.213740,83.465649,-0.105957,-0.581055,0.925537,0.00,0.00,0.00
620,162.984733,35.358779,83.015267,-0.102051,-0.628662,0.940918,0.00,0.00,0.00
621,166.213740,33.992366,81.954198,-0.116455,-0.676025,0.951172,0.00,0.00,0.00
622,169.816794,32.480916,79.358779,-0.121094,-0.724854,0.962158,0.00,0.00,0.00
623,174.022901,31.114504,76.351145,-0.118164,-0.761475,0.968994,0.00,0.00,0.00
624,178.526718,31.770992,73.526718,-0.126465,-0.790527,0.950684,0.00,0.00,0.00
625,179.748092,31.587786,69.137405,-0.094238,-0.803467,0.942627,0.00,0.00,0.00
626,184.709924,31.229008,63.251908,-0.134521,-0.803955,1.015137,0.00,0.00,0.00
627,187.381679,33.534351,59.893130,-0.127930,-0.833008,0.926514,0.00,0.00,0.00
628,189.022901,35.053435,54.618321,-0.101318,-0.826660,0.959717,0.00,0.00,0.00
629,191.137405,38.404580,49.206107,-0.099121,-0.844482,0.949951,0.00,0.00,0.00
630,191.648855,41.916031,43.847328,-0.106445,-0.846191,0.975586,0.00,0.00,0.00
631,192.343511,47.839695,38.534351,-0.101318,-0.881592,0.947021,0.00,0.00,0.00
632,192.885496,53.419847,33.358779,-0.095947,-0.914062,0.956543,0.00,0.00,0.00
633,193.816794,60.305344,27.618321,-0.095947,-0.954346,0.965576,0.00,0.00,0.00
634,195.000000,68.396947,21.702290,-0.082764,-1.002197,0.958496,0.00,0.00,0.00
635,196.236641,76.725191,14.328244,-0.063721,-1.045166,0.957031,0.00,0.00,0.00
636,197.328244,84.305344,7.900763,-0.043701,-1.078857,0.934814,0.00,0.00,0.00
637,198.572519,93.603053,-1.732824,-0.043701,-1.108643,0.901367,0.00,0.00,0.00
638,200.725191,103.160305,-12.366412,-0.056885,-1.147949,0.840088,0.00,0.00,0.00
639,200.412214,111.541985,-23.610687,-0.071533,-1.140137,0.813721,0.00,0.00,0.00
640,198.000000,117.595420,-34.885496,-0.095215,-1.124023,0.778564,0.00,0.00,0.00
641,194.251908,123.305344,-45.251908,-0.107910,-1.107422,0.751953,0.00,0.00,0.00
642,188.839695,127.496183,-54.335878,-0.114746,-1.091553,0.710938,0.00,0.00,0.00
643,181.488550,132.091603,-61.732824,-0.095215,-1.047363,0.688721,0.00,0.00,0.00
644,172.236641,136.839695,-67.366412,-0.073975,-1.010010,0.671631,0.00,0.00,0.00
645,161.877863,142.687023,-71.496183,-0.036621,-0.979004,0.635742,0.00,0.00,0.00
646,150.633588,149.007634,-74.351145,-0.016602,-0.944824,0.611816,0.00,0.00,0.00
647,138.755725,154.717557,-76.824427,-0.022461,-0.911621,0.583740,0.00,0.00,0.00
648,126.213740,159.145038,-80.137405,-0.045166,-0.878418,0.561035,0.00,0.00,0.00
649,113.022901,161.877863,-83.862595,-0.074707,-0.870605,0.556396,0.00,0.00,0.00
650,100.305344,163.557252,-87.687023,-0.081055,-0.873291,0.548096,0.00,0.00,0.00
651,88.725191,164.916031,-90.274809,-0.071533,-0.916504,0.574707,0.00,0.00,0.00
652,79.259542,166.648855,-91.412214,-0.061768,-0.987305,0.623535,0.00,0.00,0.00
653,74.152672,168.190840,-90.213740,-0.056641,-1.074219,0.644043,0.00,0.00,0.00
654,71.778626,169.480916,-87.755725,-0.057861,-1.186279,0.658936,0.00,0.00,0.00
655,72.526718,170.396947,-84.000000,-0.062744,-1.272461,0.688965,0.00,0.00,0.00
656,76.465649,170.824427,-79.656489,-0.057861,-1.316162,0.703857,0.00,0.00,0.00
657,81.862595,170.229008,-75.702290,-0.046875,-1.321533,0.714355,0.00,0.00,0.00
658,86.961832,168.580153,-72.595420,-0.050537,-1.310791,0.736084,0.00,0.00,0.00
659,92.374046,164.832061,-70.557252,-0.062012,-1.306396,0.734375,0.00,0.00,0.00
660,97.832061,158.603053,-71.022901,-0.070312,-1.288574,0.723877,0.00,0.00,0.00
661,101.755725,151.664122,-73.725191,-0.103271,-1.252686,0.715088,0.00,0.00,0.00
662,104.977099,140.946565,-80.458015,-0.136475,-1.195801,0.712646,0.00,0.00,0.00
663,106.396947,129.000000,-90.992366,-0.156738,-1.127197,0.697266,0.00,0.00,0.00
664,105.977099,118.190840,-102.244275,-0.103760,-1.080566,0.681152,0.00,0.00,0.00
665,105.396947,110.465649,-112.885496,-0.031494,-1.061279,0.671631,0.00,0.00,0.00
666,104.862595,106.450382,-121.885496,0.055908,-1.046631,0.642090,0.00,0.00,0.00
667,104.099237,106.267176,-128.862595,0.138184,-1.030029,0.626953,0.00,0.00,0.00
668,103.419847,109.282443,-133.923664,0.189209,-1.015381,0.604004,0.00,0.00,0.00
669,102.297710,114.404580,-136.885496,0.231201,-0.997070,0.590576,0.00,0.00,0.00
670,101.061069,118.900763,-138.549618,0.230225,-0.979004,0.568115,0.00,0.00,0.00
671,98.854962,124.603053,-140.251908,0.215820,-0.967773,0.549072,0.00,0.00,0.00
672,96.244275,128.374046,-141.740458,0.169434,-0.979980,0.519287,0.00,0.00,0.00
673,93.152672,129.885496,-143.305344,0.141602,-0.983887,0.496826,0.00,0.00,0.00
674,89.740458,128.022901,-146.106870,0.087646,-0.962891,0.472412,0.00,0.00,0.00
675,85.099237,123.229008,-150.496183,0.017090,-0.942139,0.453613,0.00,0.00,0.00
676,78.679389,116.900763,-154.977099,-0.005371,-0.927734,0.455078,0.00,0.00,0.00
677,71.625954,110.694656,-157.809160,0.007812,-0.962891,0.473877,0.00,0.00,0.00
678,67.503817,106.190840,-157.610687,0.040283,-1.027588,0.479004,0.00,0.00,0.00
679,64.954198,101.488550,-154.198473,0.081299,-1.119873,0.466309,0.00,0.00,0.00
680,64.404580,96.511450,-149.458015,0.060547,-1.199951,0.453857,0.00,0.00,0.00
681,66.030534,90.519084,-143.564885,0.029541,-1.260498,0.450195,0.00,0.00,0.00
682,68.656489,82.442748,-137.893130,-0.011475,-1.245605,0.429199,0.00,0.00,0.00
683,69.969466,71.870229,-133.381679,-0.061035,-1.188721,0.434326,0.00,0.00,0.00
684,68.541985,59.022901,-130.679389,-0.087891,-1.097412,0.431396,0.00,0.00,0.00
685,64.030534,43.862595,-130.618321,-0.124512,-0.998779,0.421143,0.00,0.00,0.00
686,55.969466,27.358779,-133.099237,-0.147217,-0.899170,0.420410,0.00,0.00,0.00
687,43.374046,-0.145038,-141.152672,-1.061523,-0.413330,0.687012,0.00,0.00,0.00
688,16.221374,-67.251908,-184.244275,-1.093994,-0.699951,0.288574,0.00,0.00,0.00
689,2.389313,-100.259542,-193.374046,-0.329102,-0.625977,0.381104,0.00,0.00,0.00
690,-5.809160,-122.938931,-189.213740,0.089111,-0.546631,0.427246,0.00,0.00,0.00
691,-13.251908,-123.885496,-180.541985,0.293701,-0.618896,0.613037,0.00,0.00,0.00
692,-17.022901,-115.366412,-167.938931,0.173340,-0.843994,0.566406,0.00,0.00,0.00
693,-3.503817,-158.396947,-165.824427,-0.888916,-1.030762,0.729736,0.00,0.00,0.00
694,7.702290,-147.122137,-146.175573,-0.798340,-1.047607,1.071045,0.00,0.00,0.00
695,28.992366,-127.351145,-110.114504,-0.769043,-1.135254,1.011230,0.00,0.00,0.00
696,32.885496,-113.106870,-70.740458,-0.785400,-0.874268,0.982666,0.00,0.00,0.00
697,26.473282,-95.122137,-66.946565,-1.145020,-0.350342,0.801514,0.00,0.00,0.00
698,15.541985,-83.931298,-73.679389,-0.530518,0.009033,0.911133,0.00,0.00,0.00
699,-1.625954,-97.587786,-88.664122,-0.357910,-0.088623,1.068604,0.00,0.00,0.00
700,-10.091603,-100.114504,-92.763359,0.008057,-0.940186,1.355957,0.00,0.00,0.00
701,9.076336,-76.473282,-68.717557,0.488281,-1.528809,0.956543,0.00,0.00,0.00
702,25.580153,-51.465649,-43.648855,0.518555,-1.307129,0.786377,0.00,0.00,0.00
703,27.786260,-40.351145,-32.175573,0.314697,-0.702393,0.743652,0.00,0.00,0.00
704,22.122137,-38.732824,-29.679389,0.200928,-0.425049,0.826416,0.00,0.00,0.00
705,16.977099,-32.549618,-24.580153,0.174805,-0.547363,0.848145,0.00,0.00,0.00
706,18.832061,-23.541985,-17.702290,0.020020,-0.721924,0.852539,0.00,0.00,0.00
707,19.389313,-18.786260,-13.129771,-0.121338,-0.680664,0.839600,0.00,0.00,0.00
708,19.854962,-15.694656,-11.091603,-0.256592,-0.541016,0.758789,0.00,0.00,0.00
709,17.458015,-16.870229,-11.656489,-0.293701,-0.513184,0.799805,0.00,0.00,0.00
710,16.236641,-17.312977,-11.839695,-0.286865,-0.614502,0.774658,0.00,0.00,0.00
711,16.526718,-17.648855,-11.709924,-0.281494,-0.582520,0.762451,0.00,0.00,0.00
712,15.664122,-18.251908,-11.335878,-0.263672,-0.558105,0.774658,0.00,0.00,0.00
713,15.603053,-17.938931,-11.305344,-0.246826,-0.576172,0.760498,0.00,0.00,0.00
714,15.549618,-18.221374,-11.045802,-0.227539,-0.568604,0.773926,0.00,0.00,0.00
715,15.679389,-16.824427,-10.167939,-0.222168,-0.563477,0.775146,0.00,0.00,0.00
716,15.061069,-15.839695,-9.236641,-0.221924,-0.561768,0.780029,0.00,0.00,0.00
717,14.793893,-15.282443,-8.984733,-0.244629,-0.558105,0.767822,0.00,0.00,0.00
718,15.274809,-15.389313,-9.206107,-0.275635,-0.560059,0.763672,0.00,0.00,0.00
719,14.641221,-16.221374,-9.961832,-0.285156,-0.536865,0.796387,0.00,0.00,0.00
720,13.725191,-16.572519,-9.923664,-0.239014,-0.555176,0.816650,0.00,0.00,0.00
721,13.183206,-16.503817,-9.931298,-0.228271,-0.557861,0.808105,0.00,0.00,0.00
722,11.564885,-15.419847,-9.122137,-0.185547,-0.546631,0.833008,0.00,0.00,0.00
723,10.320611,-13.793893,-8.221374,-0.166016,-0.561279,0.814209,0.00,0.00,0.00
724,9.534351,-12.389313,-7.335878,-0.179199,-0.551270,0.815186,0.00,0.00,0.00
725,8.137405,-10.610687,-6.160305,-0.205322,-0.540771,0.807373,0.00,0.00,0.00
726,7.770992,-9.213740,-5.389313,-0.229004,-0.548584,0.805908,0.00,0.00,0.00
727,7.290076,-8.465649,-4.793893,-0.231445,-0.557861,0.808350,0.00,0.00,0.00
728,6.267176,-7.694656,-4.557252,-0.229980,-0.549316,0.805664,0.00,0.00,0.00
729,6.068702,-7.580153,-4.473282,-0.227051,-0.554443,0.801025,0.00,0.00,0.00
730,5.671756,-7.213740,-4.290076,-0.249756,-0.546387,0.801025,0.00,0.00,0.00
731,5.198473,-7.076336,-4.282443,-0.280029,-0.544434,0.799561,0.00,0.00,0.00
732,5.503817,-7.442748,-4.763359,-0.277588,-0.556641,0.795410,0.00,0.00,0.00
733,4.312977,-6.984733,-4.282443,-0.262939,-0.529541,0.792969,0.00,0.00,0.00
734,3.969466,-6.801527,-4.358779,-0.232666,-0.547852,0.790527,0.00,0.00,0.00
735,3.946565,-6.839695,-4.381679,-0.250732,-0.550537,0.798584,0.00,0.00,0.00
736,4.076336,-6.977099,-4.541985,-0.256836,-0.550293,0.780762,0.00,0.00,0.00
737,4.412214,-7.083969,-4.595420,-0.264648,-0.529785,0.787354,0.00,0.00,0.00
738,2.969466,-6.801527,-4.366412,-0.255371,-0.528809,0.807861,0.00,0.00,0.00
739,3.274809,-6.954198,-4.305344,-0.241211,-0.550293,0.796631,0.00,0.00,0.00
740,2.412214,-6.282443,-4.206107,-0.223389,-0.532715,0.800049,0.00,0.00,0.00
741,2.175573,-5.480916,-3.458015,-0.203857,-0.537109,0.790283,0.00,0.00,0.00
742,1.480916,-4.389313,-2.832061,-0.190918,-0.541016,0.795654,0.00,0.00,0.00
743,1.160305,-3.717557,-2.312977,-0.197021,-0.542480,0.799316,0.00,0.00,0.00
744,0.984733,-2.625954,-1.770992,-0.206299,-0.531738,0.791748,0.00,0.00,0.00
745,0.473282,-1.709924,-1.000000,-0.199707,-0.535889,0.799072,0.00,0.00,0.00
746,0.236641,-1.083969,-0.435115,-0.201416,-0.536133,0.779541,0.00,0.00,0.00
747,0.099237,-0.458015,0.106870,-0.200684,-0.534912,0.787842,0.00,0.00,0.00
748,-0.297710,0.389313,0.748092,-0.206543,-0.533447,0.802734,0.00,0.00,0.00
749,-0.618321,1.511450,1.351145,-0.197998,-0.535400,0.803955,0.00,0.00,0.00
750,-1.099237,2.526718,1.885496,-0.202393,-0.532959,0.792969,0.00,0.00,0.00
751,-1.343511,3.450382,2.618321,-0.220947,-0.535889,0.786377,0.00,0.00,0.00
752,-1.419847,4.259542,3.083969,-0.212158,-0.537842,0.790039,0.00,0.00,0.00
753,-1.801527,5.137405,3.694656,-0.198486,-0.536133,0.789307,0.00,0.00,0.00
754,-2.053435,6.091603,4.229008,-0.208740,-0.541748,0.795166,0.00,0.00,0.00
755,-2.106870,6.671756,4.748092,-0.220459,-0.536621,0.783691,0.00,0.00,0.00
756,-1.862595,6.984733,5.022901,-0.233398,-0.534180,0.776855,0.00,0.00,0.00
757,-1.900763,7.015267,5.137405,-0.231445,-0.536621,0.785400,0.00,0.00,0.00
758,-1.870229,7.290076,5.374046,-0.231934,-0.532959,0.786377,0.00,0.00,0.00
759,-2.229008,7.625954,5.480916,-0.242188,-0.547852,0.811035,0.00,0.00,0.00
760,-2.625954,7.656489,5.480916,-0.240234,-0.540283,0.785645,0.00,0.00,0.00
761,-2.610687,7.908397,5.564885,-0.248535,-0.543213,0.778809,0.00,0.00,0.00
762,-2.557252,7.740458,5.541985,-0.255859,-0.540283,0.783691,0.00,0.00,0.00
763,-2.679389,7.541985,5.412214,-0.264648,-0.553955,0.786133,0.00,0.00,0.00
764,-2.419847,6.564885,4.694656,-0.282471,-0.554443,0.781494,0.00,0.00,0.00
765,-1.564885,4.984733,3.923664,-0.314697,-0.548584,0.769775,0.00,0.00,0.00
766,-0.977099,3.946565,3.007634,-0.316162,-0.544922,0.768066,0.00,0.00,0.00
767,-0.778626,2.954198,2.465649,-0.294922,-0.541992,0.773682,0.00,0.00,0.00
768,-0.290076,2.564885,2.206107,-0.281494,-0.548584,0.786865,0.00,0.00,0.00
769,-0.412214,2.114504,2.122137,-0.269043,-0.547119,0.775391,0.00,0.00,0.00
770,-0.251908,2.114504,2.000000,-0.248535,-0.543701,0.771729,0.00,0.00,0.00
771,-0.358779,2.389313,2.404580,-0.232178,-0.538086,0.788818,0.00,0.00,0.00
772,-0.549618,2.709924,2.618321,-0.229004,-0.537354,0.786133,0.00,0.00,0.00
773,-0.557252,3.312977,3.106870,-0.227539,-0.539062,0.794922,0.00,0.00,0.00
774,-0.671756,3.541985,3.358779,-0.243896,-0.539062,0.796631,0.00,0.00,0.00
775,-0.755725,3.633588,3.412214,-0.271484,-0.547119,0.771729,0.00,0.00,0.00
776,-0.648855,3.641221,3.343511,-0.276855,-0.539551,0.784424,0.00,0.00,0.00
777,-0.526718,3.992366,3.541985,-0.254395,-0.534668,0.793457,0.00,0.00,0.00
778,-1.045802,5.015267,4.099237,-0.219727,-0.541748,0.788330,0.00,0.00,0.00
779,-2.534351,8.061069,6.862595,-0.049072,-0.506104,0.848877,0.00,0.00,0.00
780,-2.664122,6.854962,5.977099,-0.226318,-0.532227,0.812744,0.00,0.00,0.00
781,-3.992366,9.969466,7.770992,-0.165039,-0.534912,0.802246,0.00,0.00,0.00
782,-6.526718,13.954198,9.977099,-0.133057,-0.517090,0.823975,0.00,0.00,0.00
783,-7.938931,16.961832,12.099237,-0.117676,-0.534668,0.821777,0.00,0.00,0.00
784,-9.473282,20.160305,13.748092,-0.190918,-0.536865,0.819092,0.00,0.00,0.00
785,-9.954198,21.282443,14.511450,-0.240479,-0.538086,0.808838,0.00,0.00,0.00
786,-10.458015,21.114504,14.297710,-0.275391,-0.547363,0.787598,0.00,0.00,0.00
787,-9.671756,21.305344,14.160305,-0.282715,-0.558105,0.759277,0.00,0.00,0.00
788,-9.213740,20.625954,13.633588,-0.310791,-0.550049,0.779053,0.00,0.00,0.00
789,-8.496183,20.198473,13.053435,-0.325439,-0.559570,0.760498,0.00,0.00,0.00
790,-8.007634,18.763359,12.022901,-0.343994,-0.555664,0.761719,0.00,0.00,0.00
791,-7.114504,17.175573,11.007634,-0.358154,-0.562744,0.745850,0.00,0.00,0.00
792,-6.022901,15.198473,9.664122,-0.363037,-0.555664,0.748291,0.00,0.00,0.00
793,-5.251908,13.381679,8.351145,-0.357422,-0.552002,0.744873,0.00,0.00,0.00
794,-4.488550,11.419847,7.000000,-0.364014,-0.549316,0.748047,0.00,0.00,0.00
795,-3.786260,9.412214,5.763359,-0.367188,-0.548096,0.742432,0.00,0.00,0.00
796,-2.786260,7.656489,4.755725,-0.359131,-0.546875,0.752441,0.00,0.00,0.00
797,-2.076336,6.206107,3.610687,-0.349121,-0.550781,0.739746,0.00,0.00,0.00
798,-1.190840,5.374046,3.106870,-0.310547,-0.545166,0.755859,0.00,0.00,0.00
799,-0.664122,4.740458,2.381679,-0.330322,-0.541748,0.777832,0.00,0.00,0.00
800,-1.038168,5.465649,2.702290,-0.276123,-0.556396,0.750000,0.00,0.00,0.00
801,-1.091603,6.045802,2.839695,-0.267578,-0.535156,0.781250,0.00,0.00,0.00
802,-0.083969,6.198473,2.824427,-0.294678,-0.553467,0.770020,0.00,0.00,0.00
803,-0.709924,6.129771,2.618321,-0.307373,-0.545654,0.770020,0.00,0.00,0.00
804,-0.381679,5.908397,2.496183,-0.296387,-0.550049,0.770752,0.00,0.00,0.00
805,-0.526718,5.648855,2.274809,-0.295898,-0.548096,0.761963,0.00,0.00,0.00
806,-0.458015,5.847328,2.282443,-0.292236,-0.549072,0.761230,0.00,0.00,0.00
807,-0.534351,5.755725,2.114504,-0.304932,-0.549316,0.764404,0.00,0.00,0.00
808,-0.076336,5.450382,2.061069,-0.305664,-0.552002,0.755127,0.00,0.00,0.00
809,0.038168,4.801527,1.603053,-0.324707,-0.547607,0.758545,0.00,0.00,0.00
810,0.763359,3.717557,1.038168,-0.342285,-0.547852,0.744873,0.00,0.00,0.00
811,1.656489,2.480916,0.320611,-0.347412,-0.549561,0.746338,0.00,0.00,0.00
812,1.954198,1.236641,-0.305344,-0.359375,-0.542969,0.747803,0.00,0.00,0.00
813,3.351145,0.389313,-0.755725,-0.324707,-0.553223,0.739502,0.00,0.00,0.00
814,3.389313,-0.114504,-1.267176,-0.323975,-0.538330,0.763428,0.00,0.00,0.00
815,3.618321,-1.061069,-1.396947,-0.311035,-0.551025,0.753906,0.00,0.00,0.00
816,4.190840,-1.175573,-1.671756,-0.281006,-0.550537,0.764648,0.00,0.00,0.00
817,3.648855,-1.145038,-1.732824,-0.262939,-0.544189,0.793945,0.00,0.00,0.00
818,2.954198,-0.206107,-1.038168,-0.261475,-0.537842,0.789062,0.00,0.00,0.00
819,2.328244,0.809160,-0.480916,-0.253662,-0.549805,0.788086,0.00,0.00,0.00
820,1.358779,1.587786,0.106870,-0.247070,-0.538330,0.788086,0.00,0.00,0.00
821,1.030534,2.480916,0.671756,-0.266846,-0.543701,0.782715,0.00,0.00,0.00
822,0.625954,2.557252,0.763359,-0.288330,-0.545410,0.788330,0.00,0.00,0.00
823,0.282443,2.732824,0.641221,-0.297607,-0.552490,0.784180,0.00,0.00,0.00
824,0.137405,3.305344,0.954198,-0.287354,-0.538086,0.777344,0.00,0.00,0.00
825,-0.358779,3.503817,0.969466,-0.291992,-0.549561,0.774902,0.00,0.00,0.00
826,-0.465649,3.694656,1.259542,-0.293457,-0.541992,0.776123,0.00,0.00,0.00
827,-0.580153,3.068702,1.000000,-0.304443,-0.553467,0.767090,0.00,0.00,0.00
828,-0.587786,3.320611,0.923664,-0.309082,-0.545410,0.767090,0.00,0.00,0.00
829,-0.381679,3.114504,0.725191,-0.317871,-0.543701,0.771240,0.00,0.00,0.00
830,-0.656489,3.083969,0.648855,-0.309570,-0.529053,0.779541,0.00,0.00,0.00
831,-1.045802,3.198473,0.572519,-0.296875,-0.532715,0.781738,0.00,0.00,0.00
832,-0.900763,3.229008,0.572519,-0.305420,-0.545410,0.755371,0.00,0.00,0.00
833,-0.709924,3.229008,0.396947,-0.313477,-0.546143,0.771240,0.00,0.00,0.00
834,-0.610687,2.900763,0.419847,-0.308838,-0.538330,0.767090,0.00,0.00,0.00
835,-0.251908,2.580153,0.007634,-0.316650,-0.552734,0.760010,0.00,0.00,0.00
836,-0.671756,2.778626,0.160305,-0.310547,-0.529785,0.773682,0.00,0.00,0.00
837,-0.572519,2.664122,0.007634,-0.311035,-0.556152,0.764160,0.00,0.00,0.00
838,-0.671756,2.862595,0.145038,-0.324463,-0.546143,0.765869,0.00,0.00,0.00
839,-0.801527,2.908397,0.045802,-0.325684,-0.542725,0.759277,0.00,0.00,0.00
840,-0.740458,3.030534,-0.435115,-0.315430,-0.547119,0.772461,0.00,0.00,0.00
841,-1.610687,3.076336,-0.229008,-0.303711,-0.535645,0.789062,0.00,0.00,0.00
842,-2.022901,3.290076,-0.221374,-0.318604,-0.539551,0.782471,0.00,0.00,0.00
843,-2.244275,3.786260,-0.564885,-0.311035,-0.549072,0.772705,0.00,0.00,0.00
844,-2.679389,4.030534,-0.282443,-0.302490,-0.539551,0.770020,0.00,0.00,0.00
845,-2.725191,4.068702,-0.450382,-0.297363,-0.547852,0.762939,0.00,0.00,0.00
846,-3.236641,3.847328,-0.664122,-0.312012,-0.548340,0.764404,0.00,0.00,0.00
847,-3.832061,4.389313,-0.618321,-0.291992,-0.541992,0.779541,0.00,0.00,0.00
848,-4.244275,5.091603,-0.648855,-0.295410,-0.545166,0.776367,0.00,0.00,0.00
849,-5.152672,5.335878,-1.007634,-0.316650,-0.535645,0.778809,0.00,0.00,0.00
850,-6.122137,6.129771,-1.389313,-0.323242,-0.543701,0.785400,0.00,0.00,0.00
851,-7.312977,6.549618,-2.076336,-0.323242,-0.531494,0.801758,0.00,0.00,0.00
852,-9.083969,7.603053,-2.587786,-0.306396,-0.535889,0.795166,0.00,0.00,0.00
853,-11.396947,8.984733,-2.755725,-0.304199,-0.522705,0.814941,0.00,0.00,0.00
854,-14.106870,11.129771,-3.061069,-0.292480,-0.519775,0.848145,0.00,0.00,0.00
855,-17.557252,14.465649,-2.839695,-0.269531,-0.514160,0.871826,0.00,0.00,0.00
856,-23.183206,18.847328,-2.969466,-0.275635,-0.494385,0.925293,0.00,0.00,0.00
857,-28.427481,23.519084,-3.206107,-0.301514,-0.483887,0.942871,0.00,0.00,0.00
858,-36.335878,28.908397,-4.603053,-0.326660,-0.451416,0.958008,0.00,0.00,0.00
859,-44.541985,33.503817,-6.854962,-0.377197,-0.460449,0.964844,0.00,0.00,0.00
860,-52.488550,36.923664,-9.007634,-0.393311,-0.424805,0.956787,0.00,0.00,0.00
861,-61.015267,40.106870,-10.801527,-0.360840,-0.440674,0.977539,0.00,0.00,0.00
862,-68.793893,44.618321,-12.206107,-0.304688,-0.452148,1.010986,0.00,0.00,0.00
863,-77.519084,46.748092,-12.366412,-0.244141,-0.461182,1.029785,0.00,0.00,0.00
864,-86.847328,51.083969,-11.091603,-0.199707,-0.495850,0.996094,0.00,0.00,0.00
865,-93.885496,54.328244,-9.190840,-0.237061,-0.494385,1.018555,0.00,0.00,0.00
866,-103.870229,55.488550,-8.320611,-0.237061,-0.480957,1.042236,0.00,0.00,0.00
867,-114.122137,59.091603,-7.381679,-0.227051,-0.491211,1.045898,0.00,0.00,0.00
868,-124.549618,64.923664,-4.641221,-0.176758,-0.471924,1.043945,0.00,0.00,0.00
869,-134.282443,66.404580,-5.091603,-0.267090,-0.528564,1.035400,0.00,0.00,0.00
870,-143.641221,69.786260,-4.801527,-0.271484,-0.519043,1.041992,0.00,0.00,0.00
871,-151.900763,73.274809,-5.007634,-0.281250,-0.564453,1.000000,0.00,0.00,0.00
872,-161.213740,76.404580,-5.557252,-0.308594,-0.537598,1.024658,0.00,0.00,0.00
873,-169.770992,77.694656,-6.946565,-0.378418,-0.546143,1.010986,0.00,0.00,0.00
874,-176.442748,79.618321,-8.488550,-0.428955,-0.579102,0.978516,0.00,0.00,0.00
875,-185.190840,81.877863,-9.870229,-0.410645,-0.587646,1.009521,0.00,0.00,0.00
876,-190.709924,84.938931,-11.954198,-0.453125,-0.626709,0.954590,0.00,0.00,0.00
877,-196.419847,89.541985,-13.419847,-0.442627,-0.666992,0.942139,0.00,0.00,0.00
878,-200.297710,94.625954,-15.297710,-0.421631,-0.708740,0.909668,0.00,0.00,0.00
879,-202.328244,101.969466,-17.068702,-0.392334,-0.799805,0.914062,0.00,0.00,0.00
880,-203.129771,113.381679,-16.755725,-0.370361,-0.801758,0.857422,0.00,0.00,0.00
881,-202.557252,127.381679,-17.450382,-0.417725,-0.866211,0.854980,0.00,0.00,0.00
882,-200.190840,133.274809,-19.755725,-0.549805,-0.962158,0.904053,0.00,0.00,0.00
883,-194.374046,134.580153,-25.320611,-0.630371,-0.984619,0.945557,0.00,0.00,0.00
884,-185.633588,135.038168,-31.366412,-0.633057,-0.999023,1.003662,0.00,0.00,0.00
885,-171.419847,135.480916,-35.809160,-0.643066,-1.000732,1.130859,0.00,0.00,0.00
886,-164.954198,145.137405,-34.633588,-0.471436,-1.162598,0.919434,0.00,0.00,0.00
887,-144.465649,161.503817,-41.396947,-0.760986,-0.963623,1.013916,0.00,0.00,0.00
888,-120.282443,145.923664,-58.297710,-0.682861,-1.354980,1.227539,0.00,0.00,0.00
889,-86.259542,146.290076,-66.541985,-0.524170,-1.363770,1.378418,0.00,0.00,0.00
890,-57.427481,150.778626,-81.847328,-0.399414,-1.016602,1.354492,0.00,0.00,0.00
891,-42.175573,146.648855,-98.450382,-0.475098,-0.760498,1.386475,0.00,0.00,0.00
892,-27.648855,141.770992,-124.541985,-0.434570,-0.494873,1.303711,0.00,0.00,0.00
893,-16.061069,134.961832,-153.946565,-0.415039,-0.319824,1.305420,0.00,0.00,0.00
894,-12.122137,127.251908,-183.022901,-0.333740,-0.356445,1.311523,0.00,0.00,0.00
895,-4.152672,119.381679,-199.236641,-0.374756,-0.623047,1.214111,0.00,0.00,0.00
896,20.030534,111.938931,-204.404580,-0.484863,-0.569824,1.376709,0.00,0.00,0.00
897,37.557252,108.450382,-205.923664,-0.335693,-0.376465,1.285645,0.00,0.00,0.00
898,48.076336,107.687023,-203.687023,-0.236084,-0.248291,1.199463,0.00,0.00,0.00
899,54.961832,108.564885,-198.000000,-0.224854,-0.047119,1.094238,0.00,0.00,0.00
900,56.816794,108.282443,-192.076336,-0.229736,0.104004,1.026611,0.00,0.00,0.00
901,54.824427,104.885496,-186.198473,-0.238037,0.169678,0.990967,0.00,0.00,0.00
902,52.954198,101.900763,-178.488550,-0.244629,0.193115,1.016357,0.00,0.00,0.00
903,53.419847,98.496183,-170.351145,-0.258057,0.139160,0.956055,0.00,0.00,0.00
904,55.274809,94.572519,-160.778626,-0.260010,0.098633,0.958740,0.00,0.00,0.00
905,59.519084,90.770992,-150.030534,-0.248535,0.048584,0.956787,0.00,0.00,0.00
906,65.106870,86.526718,-139.015267,-0.242676,-0.002441,0.961670,0.00,0.00,0.00
907,71.900763,82.068702,-127.351145,-0.239014,-0.012939,0.942871,0.00,0.00,0.00
908,76.511450,77.877863,-119.160305,-0.221680,-0.005371,0.937744,0.00,0.00,0.00
909,82.358779,72.992366,-109.541985,-0.207031,0.013428,0.922119,0.00,0.00,0.00
910,88.160305,67.351145,-101.091603,-0.198975,0.010986,0.898926,0.00,0.00,0.00
911,93.702290,62.198473,-93.603053,-0.197266,-0.012451,0.848633,0.00,0.00,0.00
912,99.381679,56.641221,-85.015267,-0.203613,-0.028809,0.827881,0.00,0.00,0.00
913,103.290076,50.801527,-76.259542,-0.191406,-0.030762,0.811523,0.00,0.00,0.00
914,106.496183,44.671756,-66.083969,-0.193848,-0.020020,0.792480,0.00,0.00,0.00
915,107.282443,39.511450,-54.473282,-0.151855,0.017090,0.802246,0.00,0.00,0.00
916,107.893130,35.167939,-44.450382,-0.139404,-0.005127,0.803955,0.00,0.00,0.00
917,108.297710,29.633588,-31.465649,-0.141846,-0.023682,0.820068,0.00,0.00,0.00
918,108.679389,23.923664,-18.717557,-0.138916,-0.032471,0.822754,0.00,0.00,0.00
919,108.213740,17.595420,-6.885496,-0.139404,-0.035400,0.839355,0.00,0.00,0.00
920,108.152672,11.381679,3.343511,-0.122803,-0.054688,0.850586,0.00,0.00,0.00
921,108.000000,5.419847,11.984733,-0.098389,-0.077148,0.852539,0.00,0.00,0.00
922,108.221374,0.725191,18.511450,-0.071533,-0.104492,0.861084,0.00,0.00,0.00
923,109.007634,-2.816794,22.954198,-0.053955,-0.145020,0.868164,0.00,0.00,0.00
924,110.610687,-5.244275,26.068702,-0.042725,-0.209961,0.893799,0.00,0.00,0.00
925,112.725191,-6.511450,27.641221,-0.042480,-0.257080,0.908936,0.00,0.00,0.00
926,116.687023,-7.938931,29.007634,-0.049805,-0.325928,0.916504,0.00,0.00,0.00
927,122.488550,-8.870229,30.122137,-0.081543,-0.395020,0.940918,0.00,0.00,0.00
928,129.190840,-10.580153,31.045802,-0.119385,-0.460449,0.965820,0.00,0.00,0.00
929,136.877863,-12.480916,32.114504,-0.168457,-0.521973,0.986328,0.00,0.00,0.00
930,145.244275,-15.480916,33.595420,-0.210449,-0.553467,0.985840,0.00,0.00,0.00
931,152.778626,-19.251908,35.175573,-0.242676,-0.568848,0.987549,0.00,0.00,0.00
932,159.083969,-23.137405,36.694656,-0.269043,-0.561523,0.976807,0.00,0.00,0.00
933,163.114504,-25.572519,38.366412,-0.279541,-0.557617,0.961914,0.00,0.00,0.00
934,166.618321,-27.961832,40.099237,-0.285400,-0.544922,0.952148,0.00,0.00,0.00
935,168.748092,-29.458015,41.778626,-0.297852,-0.539062,0.923828,0.00,0.00,0.00
936,170.000000,-30.190840,43.702290,-0.318848,-0.549805,0.907227,0.00,0.00,0.00
937,170.786260,-30.007634,46.007634,-0.343750,-0.560791,0.889893,0.00,0.00,0.00
938,170.251908,-29.977099,48.755725,-0.368896,-0.576904,0.874023,0.00,0.00,0.00
939,169.633588,-29.267176,52.229008,-0.401855,-0.589600,0.864990,0.00,0.00,0.00
940,168.595420,-28.946565,56.274809,-0.441650,-0.614014,0.848389,0.00,0.00,0.00
941,167.206107,-28.633588,61.671756,-0.479492,-0.627197,0.848145,0.00,0.00,0.00
942,164.763359,-27.236641,66.671756,-0.487061,-0.624268,0.828369,0.00,0.00,0.00
943,161.870229,-27.297710,72.526718,-0.529053,-0.651367,0.829346,0.00,0.00,0.00
944,158.656489,-27.122137,78.244275,-0.568359,-0.658447,0.833252,0.00,0.00,0.00
945,154.206107,-27.022901,83.832061,-0.602051,-0.680420,0.827637,0.00,0.00,0.00
946,149.381679,-26.809160,90.091603,-0.609131,-0.708740,0.836182,0.00,0.00,0.00
947,144.648855,-26.022901,96.251908,-0.620850,-0.732666,0.824463,0.00,0.00,0.00
948,139.832061,-25.633588,101.473282,-0.624512,-0.753662,0.815674,0.00,0.00,0.00
949,134.824427,-25.320611,105.572519,-0.629150,-0.761963,0.787598,0.00,0.00,0.00
950,128.847328,-25.419847,107.946565,-0.634766,-0.752197,0.772705,0.00,0.00,0.00
951,121.091603,-25.007634,108.824427,-0.625732,-0.742920,0.762207,0.00,0.00,0.00
952,113.244275,-23.541985,109.251908,-0.591309,-0.754150,0.779053,0.00,0.00,0.00
953,106.916031,-21.190840,109.274809,-0.555420,-0.774170,0.772949,0.00,0.00,0.00
954,100.068702,-18.442748,108.725191,-0.552979,-0.766846,0.762451,0.00,0.00,0.00
955,92.236641,-16.061069,106.816794,-0.562256,-0.762451,0.762451,0.00,0.00,0.00
956,83.030534,-13.213740,104.045802,-0.555908,-0.741455,0.760254,0.00,0.00,0.00
957,73.312977,-10.778626,100.175573,-0.556885,-0.733643,0.750244,0.00,0.00,0.00
958,62.526718,-8.145038,96.030534,-0.551270,-0.751221,0.745850,0.00,0.00,0.00
959,54.083969,-6.068702,92.893130,-0.554443,-0.794434,0.740234,0.00,0.00,0.00
960,44.221374,-1.778626,89.946565,-0.547607,-0.864014,0.763428,0.00,0.00,0.00
961,37.206107,3.122137,87.870229,-0.539551,-0.958008,0.764160,0.00,0.00,0.00
962,32.175573,9.282443,88.610687,-0.539551,-1.076172,0.786865,0.00,0.00,0.00
963,31.572519,15.519084,91.244275,-0.541260,-1.211426,0.794922,0.00,0.00,0.00
964,34.786260,21.160305,95.625954,-0.569092,-1.341064,0.805908,0.00,0.00,0.00
965,42.129771,24.763359,100.251908,-0.605713,-1.466553,0.784180,0.00,0.00,0.00
966,51.786260,25.030534,104.198473,-0.662109,-1.505615,0.760498,0.00,0.00,0.00
967,59.580153,23.190840,105.396947,-0.709717,-1.491699,0.743164,0.00,0.00,0.00
968,66.702290,18.725191,104.152672,-0.748779,-1.433838,0.734375,0.00,0.00,0.00
969,71.725191,12.656489,100.587786,-0.746582,-1.391602,0.707031,0.00,0.00,0.00
970,75.412214,5.305344,95.992366,-0.707031,-1.353516,0.657227,0.00,0.00,0.00
971,76.633588,-2.022901,90.290076,-0.667725,-1.316406,0.611328,0.00,0.00,0.00
972,75.358779,-8.854962,84.435115,-0.612793,-1.254883,0.572266,0.00,0.00,0.00
973,72.473282,-14.702290,78.832061,-0.552979,-1.212891,0.508545,0.00,0.00,0.00
974,68.625954,-19.442748,73.282443,-0.478516,-1.185059,0.445557,0.00,0.00,0.00
975,64.152672,-21.839695,69.145038,-0.441162,-1.194092,0.410400,0.00,0.00,0.00
976,60.572519,-22.213740,67.061069,-0.393555,-1.219727,0.370605,0.00,0.00,0.00
977,57.534351,-22.068702,64.977099,-0.374512,-1.236084,0.303467,0.00,0.00,0.00
978,54.839695,-21.702290,63.129771,-0.362061,-1.242432,0.263916,0.00,0.00,0.00
979,51.671756,-21.137405,60.419847,-0.363037,-1.224854,0.226318,0.00,0.00,0.00
980,47.000000,-20.465649,56.862595,-0.347900,-1.183350,0.197021,0.00,0.00,0.00
981,41.389313,-18.664122,52.671756,-0.328125,-1.155029,0.159912,0.00,0.00,0.00
982,35.351145,-15.534351,48.923664,-0.276611,-1.170166,0.127930,0.00,0.00,0.00
983,30.748092,-11.687023,46.213740,-0.233398,-1.202393,0.089355,0.00,0.00,0.00
984,27.465649,-8.335878,44.366412,-0.215332,-1.216797,0.062256,0.00,0.00,0.00
985,23.763359,-4.206107,42.076336,-0.217041,-1.230713,0.058594,0.00,0.00,0.00
986,20.335878,-0.625954,39.480916,-0.224609,-1.236816,0.056396,0.00,0.00,0.00
987,17.595420,2.183206,36.732824,-0.239990,-1.268555,0.059814,0.00,0.00,0.00
988,16.816794,3.969466,34.282443,-0.242920,-1.315186,0.064697,0.00,0.00,0.00
989,16.839695,4.458015,32.312977,-0.253906,-1.332031,0.063721,0.00,0.00,0.00
990,17.290076,3.244275,29.969466,-0.269531,-1.325195,0.065186,0.00,0.00,0.00
991,17.061069,0.473282,26.343511,-0.282227,-1.265625,0.070557,0.00,0.00,0.00
992,15.137405,-3.274809,21.908397,-0.282959,-1.191406,0.075684,0.00,0.00,0.00
993,11.870229,-6.175573,17.396947,-0.269043,-1.122314,0.075684,0.00,0.00,0.00
994,6.213740,-9.213740,11.496183,-0.245361,-1.043213,0.073486,0.00,0.00,0.00
995,-1.763359,-11.305344,5.366412,-0.223877,-0.972900,0.079102,0.00,0.00,0.00
996,-10.511450,-11.625954,-0.381679,-0.198486,-0.922119,0.082764,0.00,0.00,0.00
997,-19.862595,-10.709924,-5.450382,-0.180664,-0.896484,0.097412,0.00,0.00,0.00
998,-29.236641,-8.381679,-9.717557,-0.182861,-0.895020,0.141113,0.00,0.00,0.00
999,-36.977099,-4.824427,-12.687023,-0.202637,-0.932129,0.172852,0.00,0.00,0.00
1000,-42.641221,-1.335878,-14.351145,-0.225830,-0.972168,0.201416,0.00,0.00,0.00
1001,-46.259542,1.687023,-15.786260,-0.267090,-0.989746,0.229736,0.00,0.00,0.00
1002,-49.106870,3.717557,-16.961832,-0.319336,-1.004639,0.274414,0.00,0.00,0.00
1003,-50.717557,6.000000,-17.877863,-0.375244,-0.952393,0.308105,0.00,0.00,0.00
1004,-84.595420,-14.458015,-35.641221,-0.712158,-1.093262,0.737793,0.00,0.00,0.00
1005,-83.709924,-14.038168,-50.122137,-0.535889,-1.011963,0.045654,0.00,0.00,0.00
1006,-96.816794,-16.473282,-55.809160,-0.549072,-0.855225,0.226318,0.00,0.00,0.00
1007,-98.038168,-22.595420,-56.618321,-0.318115,-0.356201,0.253418,0.00,0.00,0.00
1008,-97.793893,-16.320611,-46.312977,-0.293213,-0.387451,0.691650,0.00,0.00,0.00
1009,-104.106870,-14.442748,-36.274809,-0.366943,-0.476807,0.964844,0.00,0.00,0.00
1010,-105.221374,-6.267176,-26.709924,-0.459229,-0.451660,1.132324,0.00,0.00,0.00
1011,-111.404580,0.259542,-19.099237,-0.599854,-0.369629,1.329590,0.00,0.00,0.00
1012,-119.740458,8.488550,-20.740458,-0.595459,-0.337891,1.262695,0.00,0.00,0.00
1013,-124.916031,17.702290,-22.564885,-0.278320,-0.301270,1.043945,0.00,0.00,0.00
1014,-132.335878,22.351145,-20.198473,-0.047119,-0.336670,0.896484,0.00,0.00,0.00
1015,-138.259542,25.328244,-18.732824,-0.072754,-0.405762,0.741455,0.00,0.00,0.00
1016,-141.763359,27.824427,-17.763359,-0.152588,-0.622559,0.718262,0.00,0.00,0.00
1017,-139.229008,31.343511,-15.916031,-0.189697,-0.865967,0.791016,0.00,0.00,0.00
1018,-132.389313,32.465649,-14.122137,-0.247559,-1.033203,0.882080,0.00,0.00,0.00
1019,-119.900763,33.068702,-12.816794,-0.283203,-1.138184,0.935059,0.00,0.00,0.00
1020,-106.396947,33.610687,-13.770992,-0.283936,-1.101807,0.950439,0.00,0.00,0.00
1021,-96.221374,33.343511,-16.870229,-0.264160,-0.924072,0.902832,0.00,0.00,0.00
1022,-92.465649,35.030534,-18.587786,-0.174805,-0.710693,0.848633,0.00,0.00,0.00
1023,-94.290076,37.572519,-18.022901,-0.187012,-0.530029,0.793701,0.00,0.00,0.00
1024,-95.099237,30.885496,-25.389313,-0.686523,-0.846436,0.913818,0.00,0.00,0.00
1025,-79.198473,-14.549618,-56.458015,-1.237549,-1.441895,0.987549,0.00,0.00,0.00
1026,-49.580153,-20.473282,-47.755725,-0.768066,-1.635010,0.714600,0.00,0.00,0.00
1027,-27.000000,-16.786260,-33.297710,-0.565430,-1.421143,0.662354,0.00,0.00,0.00
1028,-15.351145,-18.068702,-25.503817,-0.604980,-0.941406,0.671875,0.00,0.00,0.00
1029,-14.748092,-23.213740,-26.473282,-0.542480,-0.548584,0.638672,0.00,0.00,0.00
1030,-14.656489,-24.526718,-30.221374,-0.460938,-0.437256,0.656738,0.00,0.00,0.00
1031,-12.137405,-31.893130,-34.786260,-0.539307,-0.531006,0.717041,0.00,0.00,0.00
1032,-5.984733,-36.137405,-36.328244,-0.544434,-0.793701,0.722412,0.00,0.00,0.00
1033,1.816794,-31.664122,-29.954198,-0.392822,-0.789307,0.686768,0.00,0.00,0.00
1034,5.549618,-30.511450,-26.984733,-0.331543,-0.698975,0.708496,0.00,0.00,0.00
1035,6.717557,-29.740458,-25.442748,-0.266357,-0.637695,0.742676,0.00,0.00,0.00
1036,7.916031,-29.740458,-24.687023,-0.261963,-0.602295,0.773438,0.00,0.00,0.00
1037,9.091603,-29.694656,-24.572519,-0.307373,-0.591553,0.792480,0.00,0.00,0.00
1038,8.793893,-28.763359,-23.282443,-0.315186,-0.585205,0.780029,0.00,0.00,0.00
1039,8.259542,-26.717557,-21.465649,-0.291992,-0.609375,0.772461,0.00,0.00,0.00
1040,6.923664,-23.893130,-18.503817,-0.243652,-0.621826,0.816650,0.00,0.00,0.00
1041,6.083969,-20.022901,-15.480916,-0.192383,-0.641602,0.821533,0.00,0.00,0.00
1042,5.015267,-15.748092,-11.992366,-0.178711,-0.632324,0.813721,0.00,0.00,0.00
1043,4.175573,-13.519084,-9.694656,-0.228760,-0.591309,0.788574,0.00,0.00,0.00
1044,3.725191,-13.137405,-9.664122,-0.285889,-0.577393,0.782227,0.00,0.00,0.00
1045,3.351145,-13.603053,-9.687023,-0.322998,-0.571045,0.767822,0.00,0.00,0.00
1046,3.030534,-12.870229,-9.167939,-0.333740,-0.576416,0.757324,0.00,0.00,0.00
1047,2.847328,-12.442748,-8.595420,-0.316650,-0.573486,0.757080,0.00,0.00,0.00
1048,2.671756,-12.038168,-8.152672,-0.299072,-0.576172,0.763672,0.00,0.00,0.00
1049,3.022901,-11.603053,-8.045802,-0.317139,-0.567871,0.739014,0.00,0.00,0.00
1050,3.297710,-11.648855,-7.801527,-0.334229,-0.571045,0.754150,0.00,0.00,0.00
1051,3.564885,-12.236641,-7.938931,-0.340576,-0.563965,0.745361,0.00,0.00,0.00
1052,4.251908,-13.419847,-8.496183,-0.318359,-0.561035,0.743164,0.00,0.00,0.00
1053,4.595420,-13.839695,-8.687023,-0.324707,-0.564209,0.743896,0.00,0.00,0.00
1054,5.320611,-14.435115,-9.022901,-0.344238,-0.560303,0.738281,0.00,0.00,0.00
1055,5.564885,-14.824427,-9.603053,-0.347900,-0.551758,0.747314,0.00,0.00,0.00
1056,5.679389,-14.946565,-9.763359,-0.326660,-0.557129,0.750000,0.00,0.00,0.00
1057,5.564885,-14.801527,-9.519084,-0.317139,-0.551270,0.766357,0.00,0.00,0.00
1058,5.312977,-14.236641,-9.328244,-0.306885,-0.561768,0.762695,0.00,0.00,0.00
1059,5.122137,-13.564885,-8.671756,-0.302246,-0.561768,0.756836,0.00,0.00,0.00
1060,4.961832,-12.877863,-8.145038,-0.294922,-0.557861,0.769531,0.00,0.00,0.00
1061,4.503817,-12.419847,-8.145038,-0.298340,-0.559570,0.747070,0.00,0.00,0.00
1062,4.595420,-11.854962,-7.725191,-0.304688,-0.560303,0.759766,0.00,0.00,0.00
1063,4.625954,-11.496183,-7.358779,-0.300781,-0.550049,0.761230,0.00,0.00,0.00
1064,4.473282,-10.862595,-7.145038,-0.289062,-0.562012,0.756592,0.00,0.00,0.00
1065,4.732824,-10.030534,-6.557252,-0.271973,-0.561768,0.760254,0.00,0.00,0.00
1066,4.381679,-9.183206,-5.801527,-0.261719,-0.556396,0.774414,0.00,0.00,0.00
1067,4.007634,-8.053435,-4.977099,-0.259521,-0.560303,0.771973,0.00,0.00,0.00
1068,3.557252,-7.114504,-4.381679,-0.250732,-0.557373,0.774902,0.00,0.00,0.00
1069,3.442748,-6.450382,-3.717557,-0.254639,-0.559082,0.763916,0.00,0.00,0.00
1070,3.251908,-5.763359,-3.160305,-0.264160,-0.558594,0.770996,0.00,0.00,0.00
1071,3.450382,-5.488550,-2.877863,-0.274902,-0.550781,0.772705,0.00,0.00,0.00
1072,3.671756,-5.305344,-3.022901,-0.293701,-0.548584,0.767578,0.00,0.00,0.00
1073,3.839695,-5.236641,-2.549618,-0.288818,-0.553711,0.806641,0.00,0.00,0.00
1074,4.572519,-5.610687,-2.977099,-0.270020,-0.564453,0.738281,0.00,0.00,0.00
1075,4.786260,-5.549618,-2.877863,-0.278564,-0.560059,0.766602,0.00,0.00,0.00
1076,4.816794,-5.305344,-2.702290,-0.281982,-0.555908,0.772949,0.00,0.00,0.00
1077,4.778626,-5.160305,-2.557252,-0.291016,-0.562988,0.765869,0.00,0.00,0.00
1078,5.000000,-4.740458,-2.458015,-0.289062,-0.560303,0.750000,0.00,0.00,0.00
1079,5.091603,-4.610687,-2.175573,-0.294189,-0.553467,0.761963,0.00,0.00,0.00
1080,5.221374,-4.221374,-2.198473,-0.284912,-0.554199,0.762695,0.00,0.00,0.00
1081,5.419847,-4.091603,-1.870229,-0.278809,-0.558838,0.761963,0.00,0.00,0.00
1082,4.969466,-3.496183,-1.488550,-0.291992,-0.557861,0.752441,0.00,0.00,0.00
1083,5.595420,-3.351145,-1.267176,-0.285645,-0.556152,0.760986,0.00,0.00,0.00
1084,5.496183,-3.366412,-1.106870,-0.270996,-0.550537,0.767090,0.00,0.00,0.00
1085,5.839695,-2.938931,-1.022901,-0.275391,-0.557617,0.768066,0.00,0.00,0.00
1086,5.526718,-2.274809,-0.717557,-0.260254,-0.542969,0.775879,0.00,0.00,0.00
1087,5.114504,-1.793893,-0.305344,-0.267090,-0.548584,0.779297,0.00,0.00,0.00
1088,4.893130,-1.167939,0.068702,-0.264648,-0.545166,0.773193,0.00,0.00,0.00
1089,4.801527,-0.580153,0.099237,-0.274414,-0.555908,0.770752,0.00,0.00,0.00
1090,4.152672,-0.251908,0.488550,-0.272461,-0.545898,0.778809,0.00,0.00,0.00
1091,3.893130,0.282443,0.511450,-0.282471,-0.545166,0.775879,0.00,0.00,0.00
1092,3.893130,0.465649,0.610687,-0.292725,-0.540527,0.773682,0.00,0.00,0.00
1093,3.908397,0.862595,0.236641,-0.302246,-0.553223,0.769531,0.00,0.00,0.00
1094,3.328244,0.854962,0.221374,-0.292480,-0.544678,0.767090,0.00,0.00,0.00
1095,3.305344,0.679389,0.167939,-0.296631,-0.554932,0.764648,0.00,0.00,0.00
1096,3.816794,0.450382,0.099237,-0.289062,-0.549316,0.758789,0.00,0.00,0.00
1097,3.664122,0.641221,-0.229008,-0.291260,-0.546143,0.782471,0.00,0.00,0.00
1098,3.374046,0.900763,-0.022901,-0.279785,-0.546143,0.779053,0.00,0.00,0.00
1099,2.893130,1.068702,-0.038168,-0.261719,-0.541260,0.789795,0.00,0.00,0.00
1100,2.488550,1.679389,0.244275,-0.275635,-0.541260,0.778809,0.00,0.00,0.00
1101,1.534351,2.267176,0.412214,-0.281982,-0.544189,0.792480,0.00,0.00,0.00
1102,1.213740,2.954198,0.664122,-0.284424,-0.545410,0.790283,0.00,0.00,0.00
1103,-0.068702,3.404580,1.167939,-0.294189,-0.555420,0.789551,0.00,0.00,0.00
1104,-1.259542,4.832061,1.496183,-0.272949,-0.538086,0.806152,0.00,0.00,0.00
1105,-2.290076,5.519084,1.816794,-0.279053,-0.551025,0.794434,0.00,0.00,0.00
1106,-3.458015,6.893130,2.038168,-0.272461,-0.539307,0.794922,0.00,0.00,0.00
1107,-4.854962,7.671756,2.091603,-0.280762,-0.537354,0.799805,0.00,0.00,0.00
1108,-6.145038,8.839695,2.374046,-0.274658,-0.540039,0.793701,0.00,0.00,0.00
1109,-7.893130,10.053435,2.656489,-0.280518,-0.536865,0.818359,0.00,0.00,0.00
1110,-9.931298,11.335878,2.755725,-0.274170,-0.538818,0.815918,0.00,0.00,0.00
1111,-12.091603,12.335878,2.740458,-0.276367,-0.544922,0.804443,0.00,0.00,0.00
1112,-13.106870,12.435115,2.526718,-0.285400,-0.541504,0.811768,0.00,0.00,0.00
1113,-15.206107,13.236641,1.977099,-0.279541,-0.530762,0.812988,0.00,0.00,0.00
1114,-17.725191,14.374046,1.526718,-0.258057,-0.521484,0.832275,0.00,0.00,0.00
1115,-19.969466,15.259542,1.335878,-0.284424,-0.544678,0.822754,0.00,0.00,0.00
1116,-22.129771,15.709924,1.229008,-0.277832,-0.541992,0.818359,0.00,0.00,0.00
1117,-24.374046,16.541985,1.290076,-0.271240,-0.560547,0.818848,0.00,0.00,0.00
1118,-26.305344,17.740458,1.549618,-0.257324,-0.526855,0.831299,0.00,0.00,0.00
1119,-29.427481,18.984733,1.641221,-0.236328,-0.527344,0.823730,0.00,0.00,0.00
1120,-31.503817,20.480916,1.916031,-0.234131,-0.543213,0.832275,0.00,0.00,0.00
1121,-33.839695,21.992366,2.122137,-0.280762,-0.542969,0.817871,0.00,0.00,0.00
1122,-36.687023,23.053435,1.763359,-0.303711,-0.529541,0.822754,0.00,0.00,0.00
1123,-39.854962,24.595420,1.190840,-0.315186,-0.536621,0.824219,0.00,0.00,0.00
1124,-42.702290,26.305344,0.236641,-0.324951,-0.529541,0.826416,0.00,0.00,0.00
1125,-46.519084,29.503817,1.809160,-0.185303,-0.517090,0.832031,0.00,0.00,0.00
1126,-49.717557,28.229008,-1.167939,-0.378174,-0.488525,0.885986,0.00,0.00,0.00
1127,-53.732824,29.702290,-1.717557,-0.372070,-0.522949,0.818359,0.00,0.00,0.00
1128,-57.534351,31.908397,-1.931298,-0.324463,-0.522705,0.827148,0.00,0.00,0.00
1129,-59.618321,32.167939,-3.442748,-0.346924,-0.539307,0.812012,0.00,0.00,0.00
1130,-63.427481,33.374046,-4.267176,-0.337158,-0.543213,0.818115,0.00,0.00,0.00
1131,-66.938931,35.480916,-4.564885,-0.334473,-0.540039,0.819824,0.00,0.00,0.00
1132,-70.824427,36.694656,-5.015267,-0.332764,-0.541992,0.824951,0.00,0.00,0.00
1133,-74.045802,38.916031,-5.137405,-0.316650,-0.554443,0.794189,0.00,0.00,0.00
1134,-77.725191,39.992366,-5.427481,-0.327637,-0.555176,0.815674,0.00,0.00,0.00
1135,-81.290076,40.977099,-6.717557,-0.355957,-0.560059,0.802490,0.00,0.00,0.00
1136,-85.007634,41.618321,-7.381679,-0.372314,-0.564453,0.814697,0.00,0.00,0.00
1137,-88.419847,42.152672,-8.198473,-0.356934,-0.565674,0.814941,0.00,0.00,0.00
1138,-92.801527,43.755725,-8.885496,-0.366943,-0.564453,0.815674,0.00,0.00,0.00
1139,-97.992366,44.763359,-9.793893,-0.379150,-0.567383,0.827881,0.00,0.00,0.00
1140,-103.312977,46.145038,-10.969466,-0.379150,-0.560059,0.821289,0.00,0.00,0.00
1141,-109.885496,47.007634,-12.305344,-0.407227,-0.555176,0.862793,0.00,0.00,0.00
1142,-116.931298,48.610687,-13.732824,-0.381592,-0.614990,0.838867,0.00,0.00,0.00
1143,-125.900763,50.251908,-15.664122,-0.407227,-0.558105,0.928467,0.00,0.00,0.00
1144,-135.198473,50.488550,-18.007634,-0.460693,-0.548096,0.927979,0.00,0.00,0.00
1145,-143.862595,52.427481,-21.702290,-0.501709,-0.584961,0.899414,0.00,0.00,0.00
1146,-150.198473,53.572519,-24.496183,-0.509277,-0.572510,0.899170,0.00,0.00,0.00
1147,-158.847328,54.251908,-28.267176,-0.509277,-0.607422,0.909424,0.00,0.00,0.00
1148,-167.511450,54.938931,-30.977099,-0.438721,-0.619141,0.941406,0.00,0.00,0.00
1149,-175.893130,54.664122,-32.412214,-0.416016,-0.657715,0.972900,0.00,0.00,0.00
1150,-186.564885,55.015267,-33.664122,-0.432373,-0.635498,0.992920,0.00,0.00,0.00
1151,-198.312977,53.603053,-36.748092,-0.481689,-0.643066,1.013916,0.00,0.00,0.00
1152,-208.755725,53.832061,-40.076336,-0.470947,-0.780518,0.991699,0.00,0.00,0.00
1153,-219.694656,56.709924,-43.160305,-0.464355,-0.732666,1.008789,0.00,0.00,0.00
1154,-230.343511,60.488550,-45.564885,-0.468506,-0.821777,0.977783,0.00,0.00,0.00
1155,-240.320611,70.641221,-47.587786,-0.497559,-0.810059,1.000244,0.00,0.00,0.00
1156,-250.137405,78.916031,-52.412214,-0.590820,-0.821777,1.055420,0.00,0.00,0.00
1157,-250.137405,82.374046,-59.328244,-0.714844,-0.889648,1.107178,0.00,0.00,0.00
1158,-250.137405,78.175573,-71.160305,-0.829102,-0.951416,1.157959,0.00,0.00,0.00
1159,-250.137405,71.870229,-81.847328,-0.826660,-0.989502,1.138916,0.00,0.00,0.00
1160,-250.137405,64.984733,-93.427481,-0.917236,-1.120361,1.132080,0.00,0.00,0.00
1161,-250.137405,52.305344,-108.480916,-0.902100,-1.115723,1.097168,0.00,0.00,0.00
1162,-250.137405,50.549618,-116.305344,-0.739990,-0.995605,1.035400,0.00,0.00,0.00
1163,-250.137405,53.061069,-120.725191,-0.714355,-0.982422,1.020752,0.00,0.00,0.00
1164,-250.137405,49.702290,-127.648855,-0.783203,-0.971680,1.031982,0.00,0.00,0.00
1165,-250.137405,41.549618,-135.572519,-0.824707,-0.980225,0.979248,0.00,0.00,0.00
1166,-250.137405,29.679389,-141.030534,-0.765625,-1.024658,0.925293,0.00,0.00,0.00
1167,-250.137405,17.152672,-144.465649,-0.739014,-1.037109,0.904785,0.00,0.00,0.00
1168,-250.137405,3.786260,-145.496183,-0.798584,-1.179199,0.893311,0.00,0.00,0.00
1169,-250.137405,-8.213740,-143.778626,-0.758057,-1.369629,0.904053,0.00,0.00,0.00
1170,-250.137405,-11.671756,-135.198473,-0.460938,-1.275879,0.919189,0.00,0.00,0.00
1171,-238.129771,-4.595420,-116.511450,-0.330811,-1.280029,1.083740,0.00,0.00,0.00
1172,-205.053435,7.465649,-92.412214,-0.281250,-1.293457,1.193359,0.00,0.00,0.00
1173,-170.221374,18.610687,-72.519084,-0.306152,-1.075439,1.242920,0.00,0.00,0.00
1174,-135.832061,28.938931,-60.145038,-0.362061,-0.842529,1.350830,0.00,0.00,0.00
1175,-102.106870,37.671756,-55.290076,-0.395264,-0.338379,1.404297,0.00,0.00,0.00
1176,-90.374046,43.877863,-67.480916,-0.261719,-0.275146,1.384766,0.00,0.00,0.00
1177,-85.221374,54.648855,-70.770992,-0.320312,-0.744629,1.161865,0.00,0.00,0.00
1178,-49.389313,54.122137,-70.068702,-0.584229,-0.595215,1.304443,0.00,0.00,0.00
1179,-25.770992,50.343511,-75.503817,-0.391357,-0.114014,1.284668,0.00,0.00,0.00
1180,-12.702290,47.847328,-82.000000,-0.332520,-0.038330,1.153320,0.00,0.00,0.00
1181,4.557252,48.618321,-85.671756,-0.290039,-0.115479,1.094727,0.00,0.00,0.00
1182,22.038168,50.916031,-89.366412,-0.252197,-0.079346,1.049072,0.00,0.00,0.00
1183,37.213740,52.809160,-91.396947,-0.218506,0.012939,0.998779,0.00,0.00,0.00
1184,51.022901,52.183206,-92.503817,-0.241211,0.025635,0.960938,0.00,0.00,0.00
1185,65.236641,52.374046,-91.145038,-0.277344,0.020996,0.932617,0.00,0.00,0.00
1186,78.633588,49.893130,-88.961832,-0.313477,0.003662,0.910156,0.00,0.00,0.00
1187,92.587786,46.488550,-84.618321,-0.343750,-0.010498,0.885254,0.00,0.00,0.00
1188,103.137405,43.274809,-79.396947,-0.358887,-0.015381,0.875732,0.00,0.00,0.00
1189,116.206107,38.824427,-72.183206,-0.348389,-0.005127,0.842285,0.00,0.00,0.00
1190,128.687023,35.198473,-63.809160,-0.347168,0.002686,0.818604,0.00,0.00,0.00
1191,138.770992,31.053435,-54.664122,-0.356201,0.012939,0.791992,0.00,0.00,0.00
1192,148.732824,27.496183,-44.435115,-0.343994,0.011230,0.773193,0.00,0.00,0.00
1193,157.083969,24.458015,-34.000000,-0.340332,0.015625,0.751465,0.00,0.00,0.00
1194,164.938931,21.671756,-22.854962,-0.336670,-0.001465,0.720215,0.00,0.00,0.00
1195,172.824427,18.381679,-11.763359,-0.353271,-0.015381,0.689209,0.00,0.00,0.00
1196,179.664122,14.977099,-0.480916,-0.375244,-0.039795,0.670654,0.00,0.00,0.00
1197,184.190840,11.770992,8.290076,-0.397217,-0.057617,0.650635,0.00,0.00,0.00
1198,188.190840,6.786260,19.595420,-0.411377,-0.073242,0.634521,0.00,0.00,0.00
1199,191.114504,1.480916,31.022901,-0.423584,-0.089844,0.623291,0.00,0.00,0.00
1200,192.717557,-4.312977,42.824427,-0.437012,-0.125000,0.623779,0.00,0.00,0.00
1201,193.511450,-10.946565,54.473282,-0.456299,-0.163574,0.626465,0.00,0.00,0.00
1202,194.312977,-17.587786,65.381679,-0.465576,-0.210449,0.635986,0.00,0.00,0.00
1203,194.732824,-24.923664,75.251908,-0.480957,-0.263672,0.655273,0.00,0.00,0.00
1204,195.496183,-30.969466,84.160305,-0.459229,-0.321045,0.683105,0.00,0.00,0.00
1205,196.625954,-35.641221,91.946565,-0.416992,-0.391602,0.697998,0.00,0.00,0.00
1206,199.458015,-37.274809,98.030534,-0.381592,-0.479736,0.695312,0.00,0.00,0.00
1207,203.305344,-36.190840,103.282443,-0.330811,-0.563232,0.687744,0.00,0.00,0.00
1208,207.641221,-32.083969,107.541985,-0.270020,-0.647217,0.679443,0.00,0.00,0.00
1209,211.267176,-25.709924,110.610687,-0.228516,-0.688721,0.690918,0.00,0.00,0.00
1210,214.114504,-18.419847,112.580153,-0.202148,-0.713623,0.705566,0.00,0.00,0.00
1211,216.114504,-10.145038,113.335878,-0.190918,-0.750000,0.708008,0.00,0.00,0.00
1212,217.358779,-2.671756,112.564885,-0.199463,-0.790283,0.725586,0.00,0.00,0.00
1213,218.282443,3.732824,110.274809,-0.234863,-0.844482,0.736328,0.00,0.00,0.00
1214,218.358779,7.610687,107.167939,-0.264648,-0.894287,0.745850,0.00,0.00,0.00
1215,218.488550,11.122137,102.595420,-0.288818,-0.953125,0.755615,0.00,0.00,0.00
1216,218.129771,12.832061,96.809160,-0.335693,-1.009521,0.781982,0.00,0.00,0.00
1217,217.877863,12.885496,89.824427,-0.359375,-1.072510,0.788818,0.00,0.00,0.00
1218,217.610687,13.488550,83.206107,-0.350586,-1.127686,0.785156,0.00,0.00,0.00
1219,217.717557,14.488550,76.862595,-0.345947,-1.187988,0.803223,0.00,0.00,0.00
1220,218.564885,16.061069,70.984733,-0.326172,-1.253418,0.800781,0.00,0.00,0.00
1221,220.534351,17.564885,66.534351,-0.342529,-1.312988,0.802490,0.00,0.00,0.00
1222,222.374046,18.587786,63.694656,-0.357422,-1.347656,0.795166,0.00,0.00,0.00
1223,224.824427,19.450382,61.076336,-0.387695,-1.364014,0.790771,0.00,0.00,0.00
1224,227.145038,19.374046,59.000000,-0.417480,-1.361328,0.773438,0.00,0.00,0.00
1225,228.183206,18.557252,57.610687,-0.445557,-1.314941,0.753174,0.00,0.00,0.00
1226,227.580153,17.992366,56.732824,-0.442627,-1.262451,0.745361,0.00,0.00,0.00
1227,224.877863,17.923664,56.732824,-0.445068,-1.217041,0.727051,0.00,0.00,0.00
1228,221.320611,18.572519,57.687023,-0.431396,-1.175537,0.705322,0.00,0.00,0.00
1229,216.709924,19.832061,59.572519,-0.438721,-1.141846,0.676025,0.00,0.00,0.00
1230,211.267176,21.206107,61.977099,-0.456055,-1.108887,0.658447,0.00,0.00,0.00
1231,206.671756,22.297710,64.511450,-0.471436,-1.081543,0.650391,0.00,0.00,0.00
1232,200.480916,23.442748,68.366412,-0.491455,-1.060303,0.638672,0.00,0.00,0.00
1233,194.007634,24.465649,73.389313,-0.508057,-1.042969,0.624512,0.00,0.00,0.00
1234,187.312977,24.625954,79.305344,-0.536133,-1.022949,0.631836,0.00,0.00,0.00
1235,179.839695,24.129771,85.893130,-0.565186,-1.007080,0.651367,0.00,0.00,0.00
1236,172.374046,22.839695,93.526718,-0.598633,-0.995605,0.681641,0.00,0.00,0.00
1237,165.053435,20.618321,100.801527,-0.622559,-0.995850,0.689941,0.00,0.00,0.00
1238,157.916031,18.091603,108.511450,-0.636963,-1.010742,0.706543,0.00,0.00,0.00
1239,152.534351,15.786260,115.145038,-0.638672,-1.018311,0.719971,0.00,0.00,0.00
1240,146.229008,13.122137,123.740458,-0.626953,-1.037354,0.742432,0.00,0.00,0.00
1241,139.755725,10.442748,132.977099,-0.604736,-1.048584,0.747070,0.00,0.00,0.00
1242,133.473282,8.351145,142.725191,-0.573730,-1.067383,0.749268,0.00,0.00,0.00
1243,126.755725,6.625954,151.412214,-0.539062,-1.070312,0.745850,0.00,0.00,0.00
1244,120.312977,4.763359,159.740458,-0.521973,-1.078125,0.718262,0.00,0.00,0.00
1245,113.229008,2.473282,167.167939,-0.507812,-1.090332,0.702148,0.00,0.00,0.00
1246,105.725191,-1.404580,172.648855,-0.518799,-1.109863,0.690186,0.00,0.00,0.00
1247,98.335878,-6.587786,176.259542,-0.549561,-1.128174,0.701416,0.00,0.00,0.00
1248,92.511450,-12.259542,177.977099,-0.556885,-1.160156,0.677002,0.00,0.00,0.00
1249,84.496183,-19.534351,180.236641,-0.422607,-1.179688,0.685303,0.00,0.00,0.00
1250,73.893130,-23.885496,184.404580,-0.097900,-1.156006,0.686768,0.00,0.00,0.00
1251,66.954198,-25.641221,189.091603,-0.097412,-1.204346,0.624756,0.00,0.00,0.00
1252,61.969466,-30.389313,187.580153,-0.281982,-1.288330,0.600098,0.00,0.00,0.00
1253,56.694656,-41.839695,179.351145,-0.455078,-1.386475,0.573975,0.00,0.00,0.00
1254,54.450382,-56.312977,168.236641,-0.555176,-1.506592,0.483643,0.00,0.00,0.00
1255,54.312977,-70.450382,156.725191,-0.598877,-1.602539,0.417236,0.00,0.00,0.00
1256,55.099237,-82.099237,146.694656,-0.581543,-1.660400,0.342773,0.00,0.00,0.00
1257,57.564885,-89.648855,138.793893,-0.507812,-1.690918,0.239502,0.00,0.00,0.00
1258,58.557252,-92.412214,132.908397,-0.402344,-1.656250,0.139648,0.00,0.00,0.00
1259,56.931298,-89.946565,127.488550,-0.315430,-1.575195,0.080566,0.00,0.00,0.00
1260,52.526718,-82.801527,122.213740,-0.226807,-1.477539,0.001465,0.00,0.00,0.00
1261,44.931298,-72.152672,116.480916,-0.143555,-1.386475,-0.068848,0.00,0.00,0.00
1262,34.511450,-58.977099,110.503817,-0.055664,-1.302002,-0.093262,0.00,0.00,0.00
1263,22.633588,-44.236641,104.374046,0.028809,-1.270996,-0.122803,0.00,0.00,0.00
1264,12.099237,-29.335878,97.389313,0.050537,-1.323975,-0.173584,0.00,0.00,0.00
1265,5.519084,-18.473282,90.816794,0.023438,-1.397705,-0.212158,0.00,0.00,0.00
1266,-2.687023,-6.816794,81.541985,-0.010742,-1.473145,-0.235596,0.00,0.00,0.00
1267,-9.000000,1.442748,71.778626,-0.041504,-1.536865,-0.262451,0.00,0.00,0.00
1268,-13.633588,6.099237,63.167939,-0.111816,-1.270020,-0.222900,0.00,0.00,0.00
1269,-49.458015,-12.412214,34.358779,-0.600830,-1.487793,-0.035156,0.00,0.00,0.00
1270,-48.473282,-1.496183,15.595420,-0.146729,-1.460449,-0.348877,0.00,0.00,0.00
1271,-69.633588,-5.877863,3.954198,-0.149414,-1.381836,-0.350586,0.00,0.00,0.00
1272,-86.503817,-14.656489,-12.167939,-0.261475,-1.418945,-0.319580,0.00,0.00,0.00
1273,-100.137405,-15.648855,-26.419847,-0.279297,-1.580811,-0.322510,0.00,0.00,0.00
1274,-117.778626,-7.755725,-43.480916,-0.216797,-1.778809,-0.423584,0.00,0.00,0.00
1275,-137.725191,8.465649,-58.000000,0.069336,-1.762695,-0.585449,0.00,0.00,0.00
1276,-136.885496,15.129771,-53.488550,0.553223,0.085449,-0.536377,0.00,0.00,0.00
1277,-148.839695,38.351145,-49.847328,-0.006836,0.682861,0.836426,0.00,0.00,0.00
1278,-187.183206,48.694656,-58.473282,-0.772217,0.719727,1.691895,0.00,0.00,0.00
1279,-226.694656,78.992366,-68.595420,-1.072754,0.653076,1.999939,0.00,0.00,0.00
1280,-250.137405,66.694656,-76.030534,-1.201660,-0.686035,1.427246,0.00,0.00,0.00
1281,-233.259542,43.816794,-68.770992,-0.910400,-1.668701,0.528076,0.00,0.00,0.00
1282,-203.435115,48.549618,-47.152672,-0.340088,-1.779297,0.416748,0.00,0.00,0.00
1283,-189.465649,45.374046,-26.152672,-0.152588,-1.537598,0.916504,0.00,0.00,0.00
1284,-180.938931,48.854962,-20.870229,-0.322021,-1.196533,1.062744,0.00,0.00,0.00
1285,-167.740458,36.709924,-30.366412,-0.429443,-1.185791,1.050537,0.00,0.00,0.00
1286,-146.893130,35.770992,-40.877863,-0.343506,-1.192627,0.826172,0.00,0.00,0.00
1287,-128.122137,37.961832,-45.435115,-0.329834,-0.993896,0.850098,0.00,0.00,0.00
1288,-121.419847,33.885496,-47.290076,-0.428955,-0.708008,0.870361,0.00,0.00,0.00
1289,-122.908397,33.259542,-45.931298,-0.557861,-0.495117,0.701172,0.00,0.00,0.00
1290,-125.435115,32.572519,-45.160305,-0.714111,-0.393066,0.586914,0.00,0.00,0.00
1291,-132.198473,21.687023,-48.786260,-0.979492,-0.316895,0.615479,0.00,0.00,0.00
1292,-139.244275,-2.297710,-74.061069,-1.900146,-1.043213,0.857422,0.00,0.00,0.00
1293,-109.824427,-57.595420,-111.290076,-1.512451,-1.640137,0.963379,0.00,0.00,0.00
1294,-72.496183,-59.496183,-90.061069,-0.381104,-1.858154,0.527832,0.00,0.00,0.00
1295,-47.427481,-53.267176,-68.511450,-0.236816,-1.413818,0.763672,0.00,0.00,0.00
1296,-33.320611,-47.396947,-61.694656,-0.175781,-0.999756,0.701660,0.00,0.00,0.00
1297,-30.167939,-49.885496,-58.099237,-0.267822,-0.666992,0.797852,0.00,0.00,0.00
1298,-25.114504,-48.732824,-59.290076,-0.420410,-0.590088,0.733398,0.00,0.00,0.00
1299,-23.007634,-50.091603,-59.022901,-0.445801,-0.599121,0.776611,0.00,0.00,0.00
1300,-21.076336,-55.717557,-57.312977,-0.448975,-0.764404,0.839355,0.00,0.00,0.00
1301,-11.137405,-46.549618,-47.251908,-0.062988,-0.985840,0.813721,0.00,0.00,0.00
1302,-3.465649,-35.358779,-33.740458,0.111572,-0.937500,0.899414,0.00,0.00,0.00
1303,-0.229008,-24.267176,-22.763359,0.083252,-0.816895,0.888184,0.00,0.00,0.00
1304,0.458015,-16.893130,-16.290076,-0.119141,-0.682861,0.858154,0.00,0.00,0.00
1305,-0.625954,-14.236641,-13.480916,-0.328613,-0.617188,0.809570,0.00,0.00,0.00
1306,-1.717557,-12.167939,-11.236641,-0.382568,-0.607910,0.772705,0.00,0.00,0.00
1307,-2.389313,-10.824427,-9.809160,-0.350098,-0.598633,0.771973,0.00,0.00,0.00
1308,-2.374046,-9.061069,-8.282443,-0.306152,-0.600586,0.769043,0.00,0.00,0.00
1309,-2.251908,-7.618321,-7.236641,-0.319092,-0.576172,0.752441,0.00,0.00,0.00
1310,-2.106870,-7.519084,-7.083969,-0.360107,-0.554199,0.733643,0.00,0.00,0.00
1311,-2.206107,-7.839695,-7.541985,-0.368896,-0.543213,0.745850,0.00,0.00,0.00
1312,-2.221374,-8.015267,-7.488550,-0.322021,-0.553711,0.739502,0.00,0.00,0.00
1313,-1.312977,-7.290076,-6.977099,-0.322021,-0.573242,0.727295,0.00,0.00,0.00
1314,-0.618321,-7.251908,-6.557252,-0.354004,-0.567383,0.726807,0.00,0.00,0.00
1315,-0.404580,-7.328244,-6.748092,-0.376709,-0.554688,0.720947,0.00,0.00,0.00
1316,-0.282443,-7.778626,-7.137405,-0.384277,-0.549805,0.735107,0.00,0.00,0.00
1317,-0.053435,-8.549618,-7.755725,-0.369385,-0.546875,0.722900,0.00,0.00,0.00
1318,0.351145,-8.656489,-8.068702,-0.356201,-0.570801,0.730713,0.00,0.00,0.00
1319,1.022901,-9.106870,-8.122137,-0.359131,-0.565918,0.734131,0.00,0.00,0.00
1320,1.328244,-9.320611,-8.587786,-0.367676,-0.555664,0.730713,0.00,0.00,0.00
1321,1.595420,-9.832061,-9.015267,-0.372070,-0.559082,0.735352,0.00,0.00,0.00
1322,2.152672,-9.603053,-8.954198,-0.375732,-0.566895,0.724854,0.00,0.00,0.00
1323,2.885496,-10.137405,-9.312977,-0.386719,-0.557861,0.710938,0.00,0.00,0.00
1324,3.251908,-10.572519,-9.885496,-0.392334,-0.549805,0.717773,0.00,0.00,0.00
1325,3.656489,-10.954198,-10.389313,-0.385986,-0.551758,0.737061,0.00,0.00,0.00
1326,3.832061,-11.648855,-10.641221,-0.360107,-0.540527,0.734863,0.00,0.00,0.00
1327,4.251908,-11.297710,-10.908397,-0.334961,-0.569580,0.742432,0.00,0.00,0.00
1328,4.709924,-10.557252,-10.473282,-0.323975,-0.580322,0.748535,0.00,0.00,0.00
1329,4.427481,-10.129771,-10.038168,-0.299805,-0.555664,0.751709,0.00,0.00,0.00
1330,4.190840,-9.572519,-9.519084,-0.308105,-0.565674,0.753662,0.00,0.00,0.00
1331,4.091603,-8.809160,-8.923664,-0.315674,-0.574707,0.750000,0.00,0.00,0.00
1332,3.969466,-8.206107,-8.480916,-0.313721,-0.567627,0.742432,0.00,0.00,0.00
1333,4.045802,-8.183206,-8.190840,-0.319824,-0.568115,0.740479,0.00,0.00,0.00
1334,4.068702,-8.175573,-8.152672,-0.326660,-0.562988,0.745361,0.00,0.00,0.00
1335,4.122137,-8.473282,-8.358779,-0.320312,-0.563965,0.749512,0.00,0.00,0.00
1336,3.984733,-8.358779,-7.984733,-0.311279,-0.567139,0.739258,0.00,0.00,0.00
1337,4.061069,-8.198473,-7.801527,-0.310059,-0.568359,0.745117,0.00,0.00,0.00
1338,3.908397,-7.877863,-7.381679,-0.302734,-0.571289,0.754639,0.00,0.00,0.00
1339,4.038168,-7.961832,-7.297710,-0.303711,-0.568115,0.753174,0.00,0.00,0.00
1340,4.137405,-8.419847,-7.305344,-0.316895,-0.566406,0.754150,0.00,0.00,0.00
1341,4.007634,-8.763359,-7.603053,-0.327148,-0.560547,0.740479,0.00,0.00,0.00
1342,3.839695,-8.709924,-7.511450,-0.321533,-0.565430,0.747314,0.00,0.00,0.00
1343,4.183206,-8.488550,-7.083969,-0.307617,-0.571777,0.741699,0.00,0.00,0.00
1344,4.328244,-8.167939,-6.732824,-0.306885,-0.563965,0.749756,0.00,0.00,0.00
1345,5.778626,-7.007634,-6.351145,-0.314941,-0.561279,0.725830,0.00,0.00,0.00
1346,4.824427,-6.992366,-6.274809,-0.308105,-0.555176,0.751221,0.00,0.00,0.00
1347,4.396947,-6.786260,-5.839695,-0.302734,-0.558838,0.770996,0.00,0.00,0.00
1348,4.106870,-5.839695,-5.534351,-0.289062,-0.566162,0.752441,0.00,0.00,0.00
1349,3.786260,-4.938931,-4.603053,-0.285156,-0.569336,0.752686,0.00,0.00,0.00
1350,3.580153,-4.137405,-4.129771,-0.280762,-0.566895,0.767090,0.00,0.00,0.00
1351,3.572519,-3.900763,-3.442748,-0.293701,-0.558105,0.754639,0.00,0.00,0.00
1352,3.312977,-4.007634,-3.748092,-0.306152,-0.557373,0.761963,0.00,0.00,0.00
1353,3.129771,-4.328244,-4.122137,-0.316895,-0.558594,0.760986,0.00,0.00,0.00
1354,3.396947,-4.763359,-4.404580,-0.317139,-0.559570,0.750977,0.00,0.00,0.00
1355,3.251908,-5.106870,-4.290076,-0.319824,-0.567383,0.760986,0.00,0.00,0.00
1356,3.549618,-4.885496,-4.389313,-0.301270,-0.562012,0.750488,0.00,0.00,0.00
1357,3.007634,-4.167939,-3.916031,-0.283691,-0.557617,0.766357,0.00,0.00,0.00
1358,2.770992,-3.877863,-3.496183,-0.279053,-0.560303,0.761230,0.00,0.00,0.00
1359,2.198473,-3.099237,-3.213740,-0.296143,-0.560303,0.763184,0.00,0.00,0.00
1360,1.954198,-2.923664,-3.022901,-0.294189,-0.565430,0.762207,0.00,0.00,0.00
1361,1.648855,-2.137405,-2.305344,-0.291992,-0.564697,0.758545,0.00,0.00,0.00
1362,1.175573,-1.519084,-1.984733,-0.304688,-0.560059,0.763916,0.00,0.00,0.00
1363,0.450382,-0.908397,-1.664122,-0.288818,-0.561523,0.768555,0.00,0.00,0.00
1364,0.022901,-0.137405,-1.213740,-0.295166,-0.555664,0.761230,0.00,0.00,0.00
1365,-0.687023,0.045802,-1.419847,-0.297363,-0.556885,0.770264,0.00,0.00,0.00
1366,-0.923664,0.412214,-1.213740,-0.305664,-0.551758,0.765625,0.00,0.00,0.00
1367,-1.496183,0.419847,-1.183206,-0.308594,-0.549072,0.775146,0.00,0.00,0.00
1368,-1.717557,0.610687,-1.251908,-0.304688,-0.565186,0.765381,0.00,0.00,0.00
1369,-2.061069,1.183206,-1.198473,-0.283203,-0.557617,0.770508,0.00,0.00,0.00
1370,-2.969466,1.435115,-0.824427,-0.295166,-0.552246,0.771484,0.00,0.00,0.00
1371,-3.847328,2.061069,-0.916031,-0.301514,-0.557373,0.771973,0.00,0.00,0.00
1372,-4.954198,2.587786,-0.877863,-0.289795,-0.558594,0.788330,0.00,0.00,0.00
1373,-5.725191,3.358779,-0.709924,-0.300781,-0.558105,0.780029,0.00,0.00,0.00
1374,-7.419847,4.213740,-0.618321,-0.285400,-0.548828,0.793213,0.00,0.00,0.00
1375,-8.748092,4.641221,-0.534351,-0.287109,-0.558350,0.795654,0.00,0.00,0.00
1376,-9.770992,5.541985,-0.480916,-0.294922,-0.552002,0.785645,0.00,0.00,0.00
1377,-11.366412,6.175573,-0.549618,-0.298584,-0.546875,0.787109,0.00,0.00,0.00
1378,-12.847328,7.076336,-0.587786,-0.300293,-0.551758,0.788330,0.00,0.00,0.00
1379,-14.854962,7.969466,-0.541985,-0.287598,-0.536377,0.808105,0.00,0.00,0.00
1380,-16.801527,9.068702,-0.717557,-0.292480,-0.552246,0.809326,0.00,0.00,0.00
1381,-19.038168,10.198473,-0.633588,-0.296875,-0.542969,0.803467,0.00,0.00,0.00
1382,-21.236641,11.007634,-0.740458,-0.276611,-0.552002,0.797607,0.00,0.00,0.00
1383,-23.083969,12.419847,-0.633588,-0.284424,-0.550537,0.799316,0.00,0.00,0.00
1384,-24.374046,13.335878,-0.778626,-0.283203,-0.545410,0.802490,0.00,0.00,0.00
1385,-26.267176,14.488550,-0.687023,-0.302490,-0.556641,0.795898,0.00,0.00,0.00
1386,-28.167939,15.916031,-0.847328,-0.291260,-0.544678,0.794434,0.00,0.00,0.00
1387,-29.961832,17.297710,-1.076336,-0.307861,-0.549316,0.791992,0.00,0.00,0.00
1388,-31.801527,17.625954,-1.824427,-0.341797,-0.552246,0.792725,0.00,0.00,0.00
1389,-34.259542,18.236641,-2.419847,-0.346924,-0.530029,0.797852,0.00,0.00,0.00
1390,-37.083969,18.496183,-3.312977,-0.353516,-0.543701,0.792725,0.00,0.00,0.00
1391,-39.564885,19.450382,-4.160305,-0.353271,-0.549316,0.796875,0.00,0.00,0.00
1392,-41.587786,20.000000,-4.389313,-0.348145,-0.552490,0.797852,0.00,0.00,0.00
1393,-44.816794,20.053435,-5.343511,-0.349854,-0.554199,0.797363,0.00,0.00,0.00
1394,-47.045802,22.000000,-5.664122,-0.314453,-0.560059,0.790527,0.00,0.00,0.00
1395,-50.366412,23.045802,-6.229008,-0.347412,-0.550293,0.798828,0.00,0.00,0.00
1396,-53.748092,23.977099,-6.473282,-0.317139,-0.557861,0.819580,0.00,0.00,0.00
1397,-57.625954,26.030534,-7.244275,-0.325195,-0.549072,0.820068,0.00,0.00,0.00
1398,-62.274809,27.137405,-7.511450,-0.322510,-0.552246,0.842529,0.00,0.00,0.00
1399,-67.641221,29.198473,-8.129771,-0.323486,-0.542236,0.848145,0.00,0.00,0.00
1400,-72.587786,31.694656,-8.183206,-0.302979,-0.548828,0.858643,0.00,0.00,0.00
1401,-77.358779,34.198473,-8.282443,-0.303467,-0.540527,0.884521,0.00,0.00,0.00
1402,-85.045802,37.328244,-8.396947,-0.279297,-0.535889,0.929932,0.00,0.00,0.00
1403,-94.374046,40.702290,-8.152672,-0.277832,-0.519531,0.999756,0.00,0.00,0.00
1404,-106.091603,44.358779,-7.916031,-0.302002,-0.508789,1.024170,0.00,0.00,0.00
1405,-118.183206,47.778626,-8.587786,-0.362061,-0.499268,1.008545,0.00,0.00,0.00
1406,-128.328244,51.694656,-11.030534,-0.459473,-0.512207,0.961182,0.00,0.00,0.00
1407,-138.625954,55.251908,-13.870229,-0.475098,-0.505615,0.957764,0.00,0.00,0.00
1408,-146.267176,60.198473,-15.793893,-0.369873,-0.531494,0.991943,0.00,0.00,0.00
1409,-155.778626,64.183206,-15.786260,-0.340332,-0.573730,1.002930,0.00,0.00,0.00
1410,-167.374046,65.816794,-16.290076,-0.347656,-0.583008,1.020508,0.00,0.00,0.00
1411,-179.389313,68.694656,-16.229008,-0.334961,-0.584473,1.039307,0.00,0.00,0.00
1412,-191.755725,71.847328,-15.984733,-0.350830,-0.609375,1.041504,0.00,0.00,0.00
1413,-202.244275,75.984733,-15.633588,-0.407959,-0.633301,1.012695,0.00,0.00,0.00
1414,-213.664122,78.412214,-15.740458,-0.402100,-0.656738,1.012939,0.00,0.00,0.00
1415,-225.167939,81.770992,-16.305344,-0.417480,-0.598877,1.007812,0.00,0.00,0.00
1416,-236.938931,83.076336,-17.923664,-0.449707,-0.674805,1.017090,0.00,0.00,0.00
1417,-249.473282,82.190840,-21.183206,-0.427246,-0.811035,1.046631,0.00,0.00,0.00
1418,-250.137405,85.877863,-20.969466,-0.341064,-0.717041,1.080811,0.00,0.00,0.00
1419,-250.137405,90.427481,-21.816794,-0.427002,-0.764893,1.124268,0.00,0.00,0.00
1420,-250.137405,91.862595,-25.816794,-0.491699,-0.816650,1.149414,0.00,0.00,0.00
1421,-250.137405,93.526718,-31.167939,-0.508301,-0.859863,1.144531,0.00,0.00,0.00
1422,-250.137405,93.435115,-38.282443,-0.592041,-0.891357,1.144775,0.00,0.00,0.00
1423,-250.137405,89.503817,-48.900763,-0.730713,-0.973633,1.156006,0.00,0.00,0.00
1424,-250.137405,88.267176,-60.083969,-0.701904,-0.931885,1.092529,0.00,0.00,0.00
1425,-250.137405,88.160305,-71.526718,-0.827881,-0.903076,1.076904,0.00,0.00,0.00
1426,-250.137405,83.793893,-82.427481,-0.977051,-0.834961,1.062744,0.00,0.00,0.00
1427,-250.137405,74.053435,-99.190840,-1.059326,-0.810547,0.990723,0.00,0.00,0.00
1428,-250.137405,56.610687,-119.099237,-1.218750,-0.780273,0.946045,0.00,0.00,0.00
1429,-250.137405,29.877863,-141.259542,-1.231934,-0.786865,0.953125,0.00,0.00,0.00
1430,-250.137405,7.015267,-158.435115,-1.074951,-0.825439,0.977539,0.00,0.00,0.00
1431,-250.137405,-2.442748,-165.549618,-0.915771,-0.870850,0.946045,0.00,0.00,0.00
1432,-250.137405,-4.755725,-166.916031,-0.712402,-0.915283,0.884033,0.00,0.00,0.00
1433,-250.137405,-7.458015,-162.839695,-0.615723,-1.013916,0.748291,0.00,0.00,0.00
1434,-250.137405,-9.396947,-155.916031,-0.546631,-1.053223,0.690674,0.00,0.00,0.00
1435,-250.137405,-10.763359,-150.908397,-0.445068,-1.122559,0.563721,0.00,0.00,0.00
1436,-250.137405,-13.610687,-142.320611,-0.241211,-0.979248,0.531738,0.00,0.00,0.00
1437,-250.137405,-7.465649,-113.572519,-0.114990,-0.933350,0.742188,0.00,0.00,0.00
1438,-250.137405,5.396947,-82.427481,-0.247070,-1.357910,0.838867,0.00,0.00,0.00
1439,-205.343511,18.190840,-58.099237,-0.390137,-1.329102,1.021240,0.00,0.00,0.00
1440,-156.916031,29.160305,-43.335878,-0.457031,-1.056885,1.184082,0.00,0.00,0.00
1441,-103.793893,37.809160,-31.664122,-0.297363,-0.695068,1.300049,0.00,0.00,0.00
1442,-51.412214,49.351145,-19.534351,-0.210693,-0.539795,1.406738,0.00,0.00,0.00
1443,-11.633588,58.091603,-19.229008,-0.274414,-0.468018,1.519287,0.00,0.00,0.00
1444,4.114504,63.396947,-29.114504,-0.326172,-0.617676,1.379639,0.00,0.00,0.00
1445,30.687023,61.748092,-36.328244,-0.653320,-0.806152,1.259521,0.00,0.00,0.00
1446,66.641221,50.145038,-42.267176,-0.724854,-0.415771,1.267578,0.00,0.00,0.00
1447,88.061069,33.076336,-51.641221,-0.576416,-0.036133,1.151611,0.00,0.00,0.00
1448,103.251908,16.709924,-60.419847,-0.588135,-0.021729,1.037109,0.00,0.00,0.00
1449,117.549618,0.740458,-66.610687,-0.635010,-0.087646,0.984619,0.00,0.00,0.00
1450,130.938931,-11.862595,-70.938931,-0.575195,-0.087646,0.928467,0.00,0.00,0.00
1451,143.251908,-22.450382,-71.786260,-0.473145,-0.091553,0.904297,0.00,0.00,0.00
1452,153.175573,-27.816794,-69.534351,-0.412598,-0.110840,0.858154,0.00,0.00,0.00
1453,166.603053,-32.549618,-63.641221,-0.372803,-0.132080,0.798096,0.00,0.00,0.00
1454,179.198473,-36.305344,-55.900763,-0.345703,-0.134277,0.757812,0.00,0.00,0.00
1455,190.442748,-38.839695,-47.526718,-0.347900,-0.123535,0.719238,0.00,0.00,0.00
1456,199.770992,-42.374046,-39.755725,-0.357422,-0.104492,0.695801,0.00,0.00,0.00
1457,207.122137,-45.854962,-32.328244,-0.368896,-0.081299,0.665039,0.00,0.00,0.00
1458,212.022901,-49.213740,-25.267176,-0.362305,-0.072998,0.644287,0.00,0.00,0.00
1459,215.625954,-52.404580,-18.419847,-0.340820,-0.072998,0.625244,0.00,0.00,0.00
1460,218.358779,-54.519084,-10.816794,-0.326172,-0.111816,0.603027,0.00,0.00,0.00
1461,221.625954,-56.022901,-3.541985,-0.315918,-0.160645,0.582031,0.00,0.00,0.00
1462,225.297710,-56.503817,5.389313,-0.319824,-0.226318,0.569092,0.00,0.00,0.00
1463,230.007634,-56.687023,15.549618,-0.314697,-0.303955,0.558350,0.00,0.00,0.00
1464,235.816794,-56.877863,26.297710,-0.327881,-0.369873,0.559814,0.00,0.00,0.00
1465,241.587786,-56.793893,37.320611,-0.345947,-0.397217,0.573975,0.00,0.00,0.00
1466,245.992366,-57.335878,49.122137,-0.379883,-0.406738,0.727295,0.00,0.00,0.00
1467,250.129771,-58.473282,58.450382,-0.397217,-0.452637,0.624268,0.00,0.00,0.00
1468,250.129771,-60.832061,66.236641,-0.441650,-0.457031,0.608398,0.00,0.00,0.00
1469,250.129771,-63.190840,70.763359,-0.468506,-0.477539,0.594971,0.00,0.00,0.00
1470,250.129771,-66.916031,75.801527,-0.466064,-0.498291,0.607422,0.00,0.00,0.00
1471,250.129771,-69.114504,80.366412,-0.413330,-0.534424,0.605957,0.00,0.00,0.00
1472,250.129771,-70.000000,85.282443,-0.384277,-0.571045,0.622559,0.00,0.00,0.00
1473,250.129771,-68.847328,89.824427,-0.359375,-0.624023,0.624023,0.00,0.00,0.00
1474,250.129771,-66.656489,94.007634,-0.344482,-0.663818,0.659180,0.00,0.00,0.00
1475,250.129771,-63.633588,97.656489,-0.315918,-0.717529,0.672852,0.00,0.00,0.00
1476,249.977099,-59.908397,100.442748,-0.290283,-0.793213,0.676270,0.00,0.00,0.00
1477,249.496183,-56.083969,101.870229,-0.276367,-0.839844,0.705566,0.00,0.00,0.00
1478,249.580153,-51.213740,102.625954,-0.271729,-0.891602,0.730957,0.00,0.00,0.00
1479,250.099237,-46.427481,102.389313,-0.285156,-0.954102,0.756348,0.00,0.00,0.00
1480,250.129771,-42.190840,100.961832,-0.306396,-1.013184,0.771729,0.00,0.00,0.00
1481,250.129771,-39.274809,98.450382,-0.340576,-1.073242,0.790527,0.00,0.00,0.00
1482,250.129771,-37.854962,95.763359,-0.364746,-1.103027,0.823242,0.00,0.00,0.00
1483,250.129771,-37.282443,92.885496,-0.400635,-1.138428,0.829834,0.00,0.00,0.00
1484,250.129771,-38.045802,89.809160,-0.426758,-1.159912,0.848389,0.00,0.00,0.00
1485,250.129771,-39.076336,86.885496,-0.436768,-1.162109,0.859375,0.00,0.00,0.00
1486,248.893130,-39.885496,85.076336,-0.447754,-1.172363,0.881836,0.00,0.00,0.00
1487,244.877863,-40.770992,83.198473,-0.466064,-1.185547,0.865479,0.00,0.00,0.00
1488,240.396947,-41.251908,81.977099,-0.477783,-1.208740,0.855957,0.00,0.00,0.00
1489,235.419847,-41.419847,81.824427,-0.485840,-1.233154,0.846436,0.00,0.00,0.00
1490,230.030534,-40.091603,83.312977,-0.483887,-1.260010,0.845215,0.00,0.00,0.00
1491,225.396947,-38.603053,84.839695,-0.510498,-1.277588,0.836182,0.00,0.00,0.00
1492,219.877863,-36.770992,87.229008,-0.519775,-1.298340,0.799072,0.00,0.00,0.00
1493,214.725191,-35.000000,89.274809,-0.546875,-1.294922,0.781494,0.00,0.00,0.00
1494,209.687023,-34.145038,90.290076,-0.572021,-1.292725,0.780273,0.00,0.00,0.00
1495,203.053435,-32.274809,90.580153,-0.611572,-1.278320,0.759766,0.00,0.00,0.00
1496,196.175573,-29.305344,90.320611,-0.613525,-1.274902,0.740479,0.00,0.00,0.00
1497,188.801527,-26.419847,90.183206,-0.635010,-1.301025,0.730225,0.00,0.00,0.00
1498,182.122137,-22.427481,89.702290,-0.637939,-1.328857,0.717041,0.00,0.00,0.00
1499,175.618321,-17.778626,89.412214,-0.633301,-1.349609,0.693848,0.00,0.00,0.00
1500,169.709924,-11.725191,89.679389,-0.626709,-1.369141,0.689697,0.00,0.00,0.00
1501,164.167939,-5.000000,89.862595,-0.574463,-1.393799,0.670166,0.00,0.00,0.00
1502,158.916031,3.015267,91.022901,-0.518799,-1.406494,0.636719,0.00,0.00,0.00
1503,154.931298,10.595420,92.251908,-0.463867,-1.407715,0.621338,0.00,0.00,0.00
1504,149.809160,20.351145,94.076336,-0.415771,-1.408936,0.600586,0.00,0.00,0.00
1505,144.511450,29.442748,96.099237,-0.384277,-1.430908,0.570557,0.00,0.00,0.00
1506,138.984733,36.679389,98.122137,-0.362061,-1.454590,0.545166,0.00,0.00,0.00
1507,134.160305,41.480916,100.152672,-0.356445,-1.487305,0.491455,0.00,0.00,0.00
1508,129.000000,43.038168,101.160305,-0.381348,-1.497070,0.448730,0.00,0.00,0.00
1509,122.297710,41.648855,100.137405,-0.401123,-1.485107,0.408447,0.00,0.00,0.00
1510,115.053435,36.885496,97.267176,-0.420654,-1.470947,0.358154,0.00,0.00,0.00
1511,107.366412,30.503817,92.877863,-0.428467,-1.474609,0.312256,0.00,0.00,0.00
1512,99.870229,23.984733,87.717557,-0.399658,-1.491943,0.274414,0.00,0.00,0.00
1513,93.656489,18.007634,81.748092,-0.376465,-1.503418,0.219727,0.00,0.00,0.00
1514,88.343511,12.480916,74.267176,-0.344482,-1.520020,0.163574,0.00,0.00,0.00
1515,83.938931,8.816794,65.725191,-0.311523,-1.516846,0.136719,0.00,0.00,0.00
1516,80.198473,7.595420,56.366412,-0.260010,-1.501221,0.076172,0.00,0.00,0.00
1517,76.908397,9.114504,46.778626,-0.185547,-1.472656,0.036865,0.00,0.00,0.00
1518,73.099237,13.564885,37.496183,-0.107178,-1.433838,-0.014404,0.00,0.00,0.00
1519,68.419847,20.587786,28.328244,-0.053223,-1.394531,-0.027588,0.00,0.00,0.00
1520,64.320611,27.290076,21.160305,-0.022461,-1.370605,-0.038330,0.00,0.00,0.00
1521,59.190840,36.000000,13.366412,0.008057,-1.349854,-0.065430,0.00,0.00,0.00
1522,53.832061,44.122137,5.870229,0.018799,-1.321533,-0.081299,0.00,0.00,0.00
1523,47.900763,50.496183,-1.129771,0.002197,-1.273193,-0.074463,0.00,0.00,0.00
1524,40.671756,54.755725,-8.396947,-0.048340,-1.241699,-0.070068,0.00,0.00,0.00
1525,33.282443,56.282443,-15.274809,-0.091553,-1.218750,-0.052979,0.00,0.00,0.00
1526,26.374046,55.183206,-21.473282,-0.143066,-1.225098,-0.026611,0.00,0.00,0.00
1527,19.992366,51.702290,-26.679389,-0.200439,-1.230957,-0.020508,0.00,0.00,0.00
