Packet number,Gyroscope X (deg/s),Gyroscope Y (deg/s),Gyroscope Z (deg/s),Accelerometer X (g),Accelerometer Y (g),Accelerometer Z (g),Magnetometer X (G),Magnetometer Y (G),Magnetometer Z (G)
1,-0.068702,0.061069,-0.221374,0.024658,-0.986084,-0.104004,0.00,0.00,0.00
2,-0.015267,-0.160305,-0.267176,0.036133,-0.987061,-0.104980,0.00,0.00,0.00
3,0.091603,-0.213740,-0.244275,0.025146,-0.986572,-0.107422,0.00,0.00,0.00
4,-0.038168,-0.122137,-0.351145,0.023682,-0.989258,-0.106445,0.00,0.00,0.00
5,-0.106870,0.038168,-0.190840,0.031494,-0.991211,-0.102295,0.00,0.00,0.00
6,-0.198473,-0.244275,-0.282443,0.031982,-0.987305,-0.098633,0.00,0.00,0.00
7,-0.007634,-0.229008,-0.213740,0.023193,-0.990479,-0.100342,0.00,0.00,0.00
8,-0.190840,-0.267176,-0.404580,0.022461,-0.984619,-0.112549,0.00,0.00,0.00
9,-0.114504,-0.007634,-0.274809,0.031006,-0.980469,-0.106934,0.00,0.00,0.00
10,-0.328244,-0.206107,-0.343511,0.027100,-0.987305,-0.113281,0.00,0.00,0.00
11,-0.320611,-0.259542,-0.320611,0.028564,-0.982178,-0.096924,0.00,0.00,0.00
12,0.038168,-0.145038,-0.076336,0.036377,-0.985840,-0.107178,0.00,0.00,0.00
13,-0.145038,-0.167939,-0.122137,0.022949,-0.989014,-0.105957,0.00,0.00,0.00
14,-0.282443,0.007634,-0.236641,0.030518,-0.985352,-0.095703,0.00,0.00,0.00
15,-0.290076,-0.083969,0.022901,0.030762,-0.983154,-0.101807,0.00,0.00,0.00
16,-0.335878,0.106870,-0.175573,0.029785,-0.982178,-0.108398,0.00,0.00,0.00
17,-0.290076,0.022901,-0.312977,0.023193,-0.985840,-0.108154,0.00,0.00,0.00
18,-0.488550,-0.129771,-0.190840,0.026611,-0.984375,-0.109619,0.00,0.00,0.00
19,-0.274809,0.152672,-0.183206,0.024414,-0.987305,-0.099854,0.00,0.00,0.00
20,-0.557252,-0.122137,0.045802,0.028076,-0.978760,-0.101318,0.00,0.00,0.00
21,-0.473282,0.137405,-0.213740,0.024902,-0.990723,-0.113770,0.00,0.00,0.00
22,-0.465649,-0.022901,-0.229008,0.026367,-0.983887,-0.117676,0.00,0.00,0.00
23,-0.396947,0.022901,-0.251908,0.029297,-0.984619,-0.103760,0.00,0.00,0.00
24,-0.305344,0.007634,-0.038168,0.025146,-0.992676,-0.101074,0.00,0.00,0.00
25,-0.305344,-0.007634,-0.167939,0.022461,-0.987549,-0.099365,0.00,0.00,0.00
26,-0.267176,-0.061069,-0.076336,0.027100,-0.981689,-0.094238,0.00,0.00,0.00
27,-0.328244,0.015267,0.038168,0.023438,-0.984131,-0.105225,0.00,0.00,0.00
28,-0.312977,-0.206107,-0.099237,0.017578,-0.984619,-0.106689,0.00,0.00,0.00
29,-0.145038,-0.137405,0.091603,0.027344,-0.980713,-0.104492,0.00,0.00,0.00
30,-0.167939,0.000000,-0.137405,0.026123,-0.990967,-0.109863,0.00,0.00,0.00
31,-0.267176,0.022901,-0.305344,0.029053,-0.984131,-0.102783,0.00,0.00,0.00
32,-0.175573,-0.015267,-0.007634,0.026367,-0.986084,-0.106445,0.00,0.00,0.00
33,0.076336,-0.015267,-0.183206,0.024170,-0.985107,-0.115234,0.00,0.00,0.00
34,-0.183206,0.061069,-0.007634,0.023193,-0.985107,-0.102539,0.00,0.00,0.00
35,-0.160305,0.206107,-0.114504,0.031006,-0.985596,-0.106445,0.00,0.00,0.00
36,-0.198473,-0.053435,-0.099237,0.022461,-0.985596,-0.101562,0.00,0.00,0.00
37,-0.320611,-0.091603,-0.145038,0.030762,-0.987061,-0.101074,0.00,0.00,0.00
38,-0.312977,-0.007634,-0.099237,0.026611,-0.985596,-0.111328,0.00,0.00,0.00
39,-0.099237,-0.068702,-0.183206,0.032715,-0.986084,-0.103027,0.00,0.00,0.00
40,-0.244275,-0.251908,-0.366412,0.034180,-0.989014,-0.107178,0.00,0.00,0.00
41,-0.267176,-0.183206,-0.137405,0.033691,-0.981934,-0.111572,0.00,0.00,0.00
42,-0.099237,0.015267,-0.053435,0.025635,-0.986328,-0.103516,0.00,0.00,0.00
43,-0.076336,-0.106870,-0.137405,0.028564,-0.988281,-0.099854,0.00,0.00,0.00
44,-0.305344,-0.076336,-0.068702,0.024658,-0.985840,-0.104736,0.00,0.00,0.00
45,-0.221374,-0.045802,-0.137405,0.029541,-0.982666,-0.106689,0.00,0.00,0.00
46,-0.038168,-0.106870,-0.038168,0.031006,-0.984619,-0.106445,0.00,0.00,0.00
47,0.061069,0.015267,-0.198473,0.027100,-0.986572,-0.102051,0.00,0.00,0.00
48,-0.045802,-0.068702,-0.038168,0.024902,-0.986816,-0.105469,0.00,0.00,0.00
49,-0.137405,-0.160305,-0.297710,0.024170,-0.986328,-0.105469,0.00,0.00,0.00
50,-0.267176,0.190840,-0.145038,0.023438,-0.984863,-0.105225,0.00,0.00,0.00
51,-0.381679,-0.007634,-0.206107,0.029297,-0.982910,-0.105469,0.00,0.00,0.00
52,-0.076336,0.122137,-0.312977,0.028564,-0.985596,-0.107422,0.00,0.00,0.00
53,-0.106870,0.022901,-0.290076,0.020996,-0.990479,-0.105469,0.00,0.00,0.00
54,-0.167939,-0.038168,-0.198473,0.032227,-0.986328,-0.101318,0.00,0.00,0.00
55,-0.190840,-0.152672,-0.358779,0.031738,-0.984375,-0.107422,0.00,0.00,0.00
56,-0.244275,0.061069,-0.030534,0.026123,-0.988770,-0.112549,0.00,0.00,0.00
57,-0.267176,0.076336,-0.190840,0.025879,-0.983154,-0.103271,0.00,0.00,0.00
58,-0.167939,0.160305,-0.061069,0.028320,-0.988281,-0.104980,0.00,0.00,0.00
59,-0.297710,0.045802,-0.190840,0.031006,-0.988525,-0.098389,0.00,0.00,0.00
60,-0.274809,0.083969,-0.274809,0.029297,-0.987305,-0.102783,0.00,0.00,0.00
61,-0.320611,0.091603,-0.274809,0.027100,-0.986572,-0.100098,0.00,0.00,0.00
62,-0.175573,0.015267,-0.229008,0.029785,-0.987793,-0.099854,0.00,0.00,0.00
63,-0.419847,0.007634,-0.229008,0.029785,-0.987793,-0.109131,0.00,0.00,0.00
64,-0.267176,0.091603,-0.206107,0.022705,-0.988525,-0.105469,0.00,0.00,0.00
65,-0.335878,0.129771,-0.167939,0.023193,-0.988281,-0.113037,0.00,0.00,0.00
66,-0.213740,-0.015267,-0.160305,0.029785,-0.986816,-0.096680,0.00,0.00,0.00
67,-0.068702,-0.015267,-0.198473,0.030029,-0.985107,-0.111084,0.00,0.00,0.00
68,-0.274809,-0.106870,-0.022901,0.032959,-0.982422,-0.110596,0.00,0.00,0.00
69,-0.259542,-0.137405,-0.183206,0.030029,-0.990967,-0.100342,0.00,0.00,0.00
70,-0.335878,-0.106870,-0.091603,0.023438,-0.986328,-0.099854,0.00,0.00,0.00
71,-0.229008,-0.190840,-0.244275,0.029541,-0.990723,-0.107178,0.00,0.00,0.00
72,-0.396947,-0.106870,-0.221374,0.022217,-0.984619,-0.106445,0.00,0.00,0.00
73,-0.450382,-0.106870,-0.106870,0.030273,-0.987305,-0.104248,0.00,0.00,0.00
74,-0.358779,-0.160305,-0.282443,0.031250,-0.990479,-0.099365,0.00,0.00,0.00
75,-0.236641,-0.091603,0.038168,0.023438,-0.988037,-0.094727,0.00,0.00,0.00
76,-0.221374,-0.122137,0.007634,0.026367,-0.986328,-0.118896,0.00,0.00,0.00
77,-0.229008,-0.045802,-0.076336,0.028320,-0.991211,-0.105957,0.00,0.00,0.00
78,-0.099237,-0.129771,-0.022901,0.032227,-0.980957,-0.103516,0.00,0.00,0.00
79,-0.312977,0.045802,0.190840,0.025879,-0.982422,-0.108643,0.00,0.00,0.00
80,-0.190840,0.160305,0.000000,0.026123,-0.988037,-0.106934,0.00,0.00,0.00
81,-0.053435,0.045802,-0.007634,0.029053,-0.988037,-0.107422,0.00,0.00,0.00
82,-0.312977,0.213740,-0.053435,0.024170,-0.991699,-0.106689,0.00,0.00,0.00
83,-0.427481,0.038168,-0.061069,0.025635,-0.987061,-0.105225,0.00,0.00,0.00
84,-0.145038,-0.099237,-0.251908,0.025391,-0.988281,-0.101318,0.00,0.00,0.00
85,-0.244275,0.000000,-0.267176,0.023438,-0.987549,-0.107178,0.00,0.00,0.00
86,-0.297710,-0.190840,-0.152672,0.024902,-0.984131,-0.106689,0.00,0.00,0.00
87,-0.022901,-0.137405,-0.251908,0.026611,-0.990723,-0.104004,0.00,0.00,0.00
88,-0.083969,-0.267176,-0.183206,0.021484,-0.987061,-0.112793,0.00,0.00,0.00
89,0.007634,-0.526718,0.045802,0.024170,-0.985352,-0.104736,0.00,0.00,0.00
90,-0.213740,-0.442748,-0.068702,0.023926,-0.986328,-0.104736,0.00,0.00,0.00
91,0.045802,-0.305344,-0.061069,0.020996,-0.987305,-0.110352,0.00,0.00,0.00
92,0.068702,-0.381679,-0.160305,0.028564,-0.988770,-0.106201,0.00,0.00,0.00
93,0.152672,-0.748092,-0.137405,0.014648,-0.986328,-0.109863,0.00,0.00,0.00
94,0.167939,-0.526718,-0.236641,0.010742,-0.979248,-0.103760,0.00,0.00,0.00
95,0.190840,-0.641221,-0.610687,0.020752,-0.978027,-0.105957,0.00,0.00,0.00
96,-0.068702,-0.679389,-0.511450,0.021240,-0.980957,-0.115234,0.00,0.00,0.00
97,0.053435,-0.694656,-0.480916,0.023682,-0.982910,-0.109375,0.00,0.00,0.00
98,0.206107,-0.694656,-0.267176,0.026367,-0.988770,-0.111084,0.00,0.00,0.00
99,0.679389,-0.587786,-0.076336,0.015625,-0.985840,-0.102295,0.00,0.00,0.00
100,0.625954,-1.129771,-0.038168,0.011230,-0.989258,-0.102539,0.00,0.00,0.00
101,0.297710,-1.076336,-0.114504,0.007568,-0.982910,-0.093262,0.00,0.00,0.00
102,0.137405,-1.358779,-0.061069,0.014893,-0.978271,-0.101318,0.00,0.00,0.00
103,0.083969,-3.061069,1.656489,0.023682,-0.937256,-0.090088,0.00,0.00,0.00
104,-0.755725,-3.114504,0.083969,0.006836,-1.004639,-0.115234,0.00,0.00,0.00
105,0.496183,-1.954198,0.007634,0.050049,-0.991455,-0.115234,0.00,0.00,0.00
106,0.465649,-1.244275,0.374046,0.037354,-0.977783,-0.108154,0.00,0.00,0.00
107,0.931298,-0.335878,0.206107,0.031250,-0.985352,-0.116455,0.00,0.00,0.00
108,0.870229,-0.603053,0.236641,0.018799,-0.982178,-0.114990,0.00,0.00,0.00
109,0.786260,-1.229008,0.740458,0.024902,-0.982422,-0.103271,0.00,0.00,0.00
110,0.717557,-1.923664,1.267176,0.003662,-0.971924,-0.123779,0.00,0.00,0.00
111,2.251908,-3.511450,2.389313,-0.024170,-0.973145,-0.085449,0.00,0.00,0.00
112,-1.030534,-3.908397,1.068702,0.026123,-1.006836,-0.125000,0.00,0.00,0.00
113,-0.053435,-3.587786,2.083969,0.018555,-0.987061,-0.092773,0.00,0.00,0.00
114,-1.022901,-3.534351,2.687023,0.007812,-0.970947,-0.119141,0.00,0.00,0.00
115,-0.343511,-3.977099,2.076336,0.044189,-0.960938,-0.110596,0.00,0.00,0.00
116,-1.763359,-5.412214,2.358779,0.042480,-1.002930,-0.105957,0.00,0.00,0.00
117,-0.961832,-3.984733,2.580153,0.063965,-1.003906,-0.108398,0.00,0.00,0.00
118,-1.122137,-4.641221,2.465649,0.055664,-0.984131,-0.089355,0.00,0.00,0.00
119,-1.450382,-5.541985,2.488550,0.039307,-0.995605,-0.099121,0.00,0.00,0.00
120,-1.526718,-5.312977,2.450382,0.036621,-0.989014,-0.095215,0.00,0.00,0.00
121,-1.580153,-5.381679,2.641221,0.040527,-0.993164,-0.096191,0.00,0.00,0.00
122,-1.435115,-5.335878,2.580153,0.038818,-0.933350,-0.101562,0.00,0.00,0.00
123,-2.221374,-6.198473,2.816794,0.023193,-1.012695,-0.095459,0.00,0.00,0.00
124,-1.458015,-5.580153,2.534351,0.038086,-0.989258,-0.099365,0.00,0.00,0.00
125,-1.595420,-5.809160,2.938931,0.032959,-0.980713,-0.087158,0.00,0.00,0.00
126,-1.564885,-7.045802,3.450382,0.004150,-0.980957,-0.094727,0.00,0.00,0.00
127,-1.816794,-6.244275,2.572519,0.037598,-1.004883,-0.117188,0.00,0.00,0.00
128,-1.274809,-5.297710,2.335878,0.046387,-0.990479,-0.106934,0.00,0.00,0.00
129,-1.061069,-5.053435,2.740458,0.023193,-0.977783,-0.106445,0.00,0.00,0.00
130,-0.877863,-5.572519,2.671756,0.017090,-0.983398,-0.099121,0.00,0.00,0.00
131,-0.984733,-5.786260,2.877863,0.014160,-0.926270,-0.102783,0.00,0.00,0.00
132,-1.687023,-6.221374,2.610687,-0.011475,-1.009033,-0.100342,0.00,0.00,0.00
133,-1.015267,-5.763359,2.435115,0.017822,-0.989258,-0.106201,0.00,0.00,0.00
134,-1.274809,-6.099237,2.877863,-0.012695,-0.981934,-0.104980,0.00,0.00,0.00
135,-1.312977,-6.137405,2.526718,-0.020020,-0.979980,-0.121338,0.00,0.00,0.00
136,-1.312977,-5.870229,1.916031,-0.016113,-0.985107,-0.121094,0.00,0.00,0.00
137,0.152672,-6.290076,2.343511,-0.013184,-0.987793,-0.112793,0.00,0.00,0.00
138,-2.053435,-7.740458,2.137405,0.006104,-0.988281,-0.135010,0.00,0.00,0.00
139,-1.625954,-8.503817,2.877863,-0.009277,-0.991211,-0.114014,0.00,0.00,0.00
140,-1.847328,-7.511450,2.458015,-0.000244,-0.935791,-0.116455,0.00,0.00,0.00
141,-2.496183,-8.954198,2.854962,0.018066,-0.990479,-0.111816,0.00,0.00,0.00
142,-2.343511,-8.801527,2.648855,0.037109,-0.976318,-0.106201,0.00,0.00,0.00
143,-2.022901,-9.297710,3.091603,0.025391,-0.987793,-0.099121,0.00,0.00,0.00
144,-1.679389,-8.625954,2.984733,0.011475,-0.989502,-0.092773,0.00,0.00,0.00
145,-0.938931,-8.152672,2.274809,0.028320,-0.975342,-0.103760,0.00,0.00,0.00
146,-2.297710,-10.000000,2.557252,0.023926,-0.990723,-0.116455,0.00,0.00,0.00
147,-1.549618,-8.633588,2.465649,0.031738,-0.992188,-0.099854,0.00,0.00,0.00
148,-1.351145,-7.412214,2.297710,0.030029,-0.961670,-0.097412,0.00,0.00,0.00
149,-1.129771,-8.282443,2.755725,0.009277,-1.001953,-0.087891,0.00,0.00,0.00
150,-0.167939,-9.083969,3.290076,-0.006348,-0.992676,-0.088135,0.00,0.00,0.00
151,-0.152672,-9.923664,3.633588,-0.009766,-0.987549,-0.078613,0.00,0.00,0.00
152,0.083969,-10.694656,3.824427,-0.019531,-0.983154,-0.072266,0.00,0.00,0.00
153,0.251908,-11.152672,3.923664,-0.028076,-0.987061,-0.068604,0.00,0.00,0.00
154,2.312977,-11.603053,4.083969,-0.049561,-1.001953,-0.052246,0.00,0.00,0.00
155,0.435115,-13.458015,5.083969,-0.058838,-0.994385,-0.064697,0.00,0.00,0.00
156,1.343511,-15.007634,5.458015,-0.063477,-0.995117,-0.041504,0.00,0.00,0.00
157,1.786260,-16.503817,5.519084,-0.066650,-0.991455,-0.040283,0.00,0.00,0.00
158,1.114504,-18.793893,5.610687,-0.059326,-0.996338,-0.054443,0.00,0.00,0.00
159,1.053435,-20.610687,5.946565,-0.066162,-0.998779,-0.059326,0.00,0.00,0.00
160,1.129771,-21.832061,6.648855,-0.058838,-0.989502,-0.063477,0.00,0.00,0.00
161,1.213740,-23.366412,7.442748,-0.054932,-0.979736,-0.068604,0.00,0.00,0.00
162,0.183206,-24.435115,8.908397,-0.039062,-0.972900,-0.056885,0.00,0.00,0.00
163,-1.114504,-22.938931,9.870229,-0.051758,-0.978271,-0.051758,0.00,0.00,0.00
164,-1.145038,-22.458015,10.786260,-0.062256,-0.973145,-0.068115,0.00,0.00,0.00
165,-1.541985,-24.633588,11.641221,-0.051514,-0.968750,-0.069824,0.00,0.00,0.00
166,-2.763359,-25.763359,12.916031,-0.033936,-0.954102,-0.069336,0.00,0.00,0.00
167,-3.160305,-24.488550,14.175573,-0.021484,-0.958008,-0.077148,0.00,0.00,0.00
168,-3.236641,-22.854962,14.702290,0.011230,-0.990479,-0.088379,0.00,0.00,0.00
169,-2.801527,-22.564885,15.229008,0.018311,-0.998291,-0.089355,0.00,0.00,0.00
170,-3.083969,-21.725191,15.862595,0.035156,-1.005127,-0.082275,0.00,0.00,0.00
171,-3.083969,-20.129771,16.190840,0.053955,-1.000488,-0.082031,0.00,0.00,0.00
172,-3.030534,-18.152672,15.755725,0.060059,-1.008301,-0.091064,0.00,0.00,0.00
173,-2.335878,-16.236641,15.580153,0.052979,-1.008301,-0.087646,0.00,0.00,0.00
174,-2.206107,-14.954198,15.366412,0.038574,-0.995117,-0.097168,0.00,0.00,0.00
175,-2.473282,-14.770992,15.038168,0.033447,-0.983398,-0.098145,0.00,0.00,0.00
176,-2.641221,-14.748092,14.938931,0.015381,-0.992676,-0.121582,0.00,0.00,0.00
177,-2.770992,-13.389313,14.557252,0.004883,-0.982910,-0.138428,0.00,0.00,0.00
178,-2.541985,-12.389313,14.267176,0.006104,-0.977051,-0.143066,0.00,0.00,0.00
179,-2.816794,-12.274809,14.175573,0.003906,-0.989258,-0.154053,0.00,0.00,0.00
180,-2.931298,-12.961832,14.106870,-0.005371,-0.979736,-0.150146,0.00,0.00,0.00
181,-3.320611,-12.274809,13.824427,-0.004150,-0.983643,-0.163086,0.00,0.00,0.00
182,-3.442748,-12.015267,13.679389,0.011475,-0.984619,-0.159668,0.00,0.00,0.00
183,-3.343511,-11.587786,13.396947,0.026855,-0.991455,-0.161865,0.00,0.00,0.00
184,-2.931298,-11.251908,12.954198,0.018555,-0.994873,-0.149414,0.00,0.00,0.00
185,-1.992366,-8.198473,10.961832,0.031738,-0.965088,-0.142822,0.00,0.00,0.00
186,-2.351145,-10.251908,12.969466,0.035400,-0.991455,-0.141846,0.00,0.00,0.00
187,-1.030534,-8.587786,12.290076,-0.011719,-1.004639,-0.146973,0.00,0.00,0.00
188,-0.381679,-8.809160,11.931298,0.008057,-0.983887,-0.134277,0.00,0.00,0.00
189,-0.496183,-8.053435,11.328244,0.019043,-0.984131,-0.139893,0.00,0.00,0.00
190,-0.312977,-7.618321,10.862595,0.009766,-0.987305,-0.157715,0.00,0.00,0.00
191,-0.045802,-7.076336,10.114504,0.000000,-0.983154,-0.169434,0.00,0.00,0.00
192,-0.038168,-6.511450,9.099237,-0.012695,-0.988281,-0.170166,0.00,0.00,0.00
193,0.236641,-5.862595,8.297710,-0.021484,-0.979004,-0.173828,0.00,0.00,0.00
194,0.221374,-5.671756,7.496183,-0.028076,-0.977295,-0.164062,0.00,0.00,0.00
195,0.381679,-6.038168,7.061069,-0.036621,-0.975830,-0.171631,0.00,0.00,0.00
196,0.625954,-6.435115,6.358779,-0.032471,-0.991455,-0.169922,0.00,0.00,0.00
197,1.152672,-6.778626,5.709924,-0.036133,-0.992188,-0.165771,0.00,0.00,0.00
198,2.091603,-6.816794,5.145038,-0.037842,-0.986328,-0.150879,0.00,0.00,0.00
199,2.778626,-6.389313,4.748092,-0.041748,-0.990967,-0.143066,0.00,0.00,0.00
200,3.770992,-6.839695,4.465649,-0.046631,-0.985107,-0.136475,0.00,0.00,0.00
201,4.572519,-7.832061,4.381679,-0.053467,-0.990967,-0.138916,0.00,0.00,0.00
202,5.206107,-8.297710,3.687023,-0.066406,-0.985352,-0.138672,0.00,0.00,0.00
203,5.519084,-8.587786,3.473282,-0.070312,-0.984375,-0.137451,0.00,0.00,0.00
204,5.885496,-9.816794,3.381679,-0.081055,-0.986084,-0.146973,0.00,0.00,0.00
205,6.564885,-10.687023,3.366412,-0.099854,-0.988525,-0.144287,0.00,0.00,0.00
206,6.595420,-10.931298,3.748092,-0.130127,-0.980957,-0.137695,0.00,0.00,0.00
207,6.519084,-11.824427,3.847328,-0.129639,-0.973633,-0.133057,0.00,0.00,0.00
208,6.206107,-13.488550,4.061069,-0.138184,-0.979492,-0.125977,0.00,0.00,0.00
209,5.893130,-15.030534,4.236641,-0.114990,-0.973877,-0.122070,0.00,0.00,0.00
210,6.610687,-14.862595,3.900763,-0.093018,-0.942627,-0.108154,0.00,0.00,0.00
211,5.977099,-17.778626,6.419847,-0.072266,-0.993652,-0.093262,0.00,0.00,0.00
212,6.885496,-17.977099,6.290076,-0.080322,-0.997803,-0.118408,0.00,0.00,0.00
213,7.641221,-19.244275,7.030534,-0.054932,-0.994141,-0.095459,0.00,0.00,0.00
214,8.427481,-18.786260,7.938931,-0.031494,-0.987549,-0.094482,0.00,0.00,0.00
215,9.511450,-19.221374,8.412214,-0.017090,-0.988037,-0.095703,0.00,0.00,0.00
216,10.000000,-19.870229,9.190840,-0.012695,-0.991211,-0.113037,0.00,0.00,0.00
217,10.877863,-20.175573,9.442748,-0.020264,-0.987549,-0.126221,0.00,0.00,0.00
218,11.435115,-19.610687,9.664122,-0.034912,-0.972412,-0.126953,0.00,0.00,0.00
219,11.671756,-18.534351,9.145038,-0.037109,-0.980225,-0.124268,0.00,0.00,0.00
220,11.839695,-17.595420,8.961832,-0.028564,-0.976318,-0.125488,0.00,0.00,0.00
221,12.381679,-16.923664,8.236641,-0.011963,-0.998291,-0.135986,0.00,0.00,0.00
222,12.748092,-16.213740,7.335878,0.006836,-0.994141,-0.164062,0.00,0.00,0.00
223,13.343511,-15.381679,6.526718,0.013428,-1.000732,-0.172607,0.00,0.00,0.00
224,13.709924,-15.671756,7.152672,-0.024658,-0.997070,-0.161865,0.00,0.00,0.00
225,13.916031,-14.862595,6.679389,-0.039795,-0.987305,-0.151611,0.00,0.00,0.00
226,13.954198,-14.503817,5.992366,-0.033203,-0.980225,-0.149658,0.00,0.00,0.00
227,13.832061,-15.259542,5.702290,-0.009521,-0.992188,-0.148438,0.00,0.00,0.00
228,13.992366,-16.183206,5.312977,-0.019043,-0.995117,-0.153320,0.00,0.00,0.00
229,14.145038,-16.000000,5.053435,-0.010742,-0.997070,-0.149902,0.00,0.00,0.00
230,14.549618,-16.213740,4.618321,-0.008301,-1.000977,-0.140869,0.00,0.00,0.00
231,13.961832,-16.916031,5.015267,-0.032227,-1.008789,-0.133057,0.00,0.00,0.00
232,14.419847,-17.572519,4.557252,-0.020264,-0.996826,-0.129639,0.00,0.00,0.00
233,13.748092,-18.213740,4.709924,-0.026123,-0.996582,-0.121094,0.00,0.00,0.00
234,13.946565,-18.625954,4.603053,-0.040039,-0.987549,-0.109375,0.00,0.00,0.00
235,13.801527,-19.458015,4.816794,-0.048340,-0.985107,-0.106445,0.00,0.00,0.00
236,14.183206,-19.358779,5.022901,-0.051270,-0.972656,-0.098389,0.00,0.00,0.00
237,14.244275,-19.435115,5.381679,-0.054199,-0.981934,-0.071777,0.00,0.00,0.00
238,13.931298,-20.580153,5.648855,-0.057373,-0.978027,-0.084229,0.00,0.00,0.00
239,13.923664,-20.442748,5.709924,-0.038330,-0.974121,-0.064453,0.00,0.00,0.00
240,13.900763,-20.854962,5.931298,-0.025635,-0.987305,-0.080811,0.00,0.00,0.00
241,13.992366,-21.603053,5.732824,-0.024658,-1.001465,-0.084961,0.00,0.00,0.00
242,14.061069,-22.442748,5.572519,-0.034424,-1.007568,-0.090088,0.00,0.00,0.00
243,13.656489,-23.534351,5.244275,-0.019287,-1.012451,-0.073242,0.00,0.00,0.00
244,13.679389,-24.038168,4.839695,-0.002686,-1.013184,-0.075684,0.00,0.00,0.00
245,14.305344,-23.389313,4.564885,-0.001221,-1.005859,-0.063477,0.00,0.00,0.00
246,14.763359,-22.480916,4.396947,-0.014893,-1.001953,-0.064209,0.00,0.00,0.00
247,15.061069,-22.450382,4.633588,-0.046875,-0.984619,-0.046387,0.00,0.00,0.00
248,15.328244,-22.038168,4.664122,-0.072021,-0.978516,-0.034912,0.00,0.00,0.00
249,15.603053,-21.977099,4.916031,-0.091309,-0.959717,-0.032959,0.00,0.00,0.00
250,16.175573,-21.984733,4.992366,-0.101807,-0.952148,-0.039551,0.00,0.00,0.00
251,16.221374,-23.106870,5.557252,-0.128906,-0.950195,-0.038574,0.00,0.00,0.00
252,16.351145,-24.076336,5.969466,-0.127197,-0.947021,-0.043945,0.00,0.00,0.00
253,16.221374,-25.061069,6.167939,-0.125244,-0.954590,-0.054199,0.00,0.00,0.00
254,16.183206,-26.320611,6.671756,-0.107422,-0.969727,-0.063965,0.00,0.00,0.00
255,16.274809,-27.900763,7.519084,-0.095947,-0.978760,-0.076904,0.00,0.00,0.00
256,16.709924,-28.511450,8.656489,-0.088135,-0.987061,-0.076172,0.00,0.00,0.00
257,16.618321,-28.877863,9.137405,-0.074951,-0.995605,-0.068604,0.00,0.00,0.00
258,16.419847,-30.595420,9.519084,-0.068848,-1.011963,-0.079346,0.00,0.00,0.00
259,16.160305,-31.381679,10.045802,-0.052979,-1.022217,-0.073242,0.00,0.00,0.00
260,16.267176,-32.175573,10.671756,-0.045166,-1.013428,-0.075439,0.00,0.00,0.00
261,16.282443,-33.427481,10.641221,-0.031738,-1.003906,-0.077637,0.00,0.00,0.00
262,16.488550,-33.801527,10.648855,-0.028564,-1.003174,-0.068359,0.00,0.00,0.00
263,16.725191,-32.961832,10.564885,-0.016357,-1.002686,-0.053955,0.00,0.00,0.00
264,17.259542,-32.175573,10.992366,-0.019531,-0.996582,-0.056396,0.00,0.00,0.00
265,17.732824,-32.358779,10.885496,-0.016846,-0.985352,-0.053955,0.00,0.00,0.00
266,18.183206,-31.564885,10.732824,-0.014160,-0.977539,-0.049316,0.00,0.00,0.00
267,18.175573,-30.557252,10.442748,-0.010742,-0.983398,-0.044678,0.00,0.00,0.00
268,18.320611,-30.160305,10.007634,0.011719,-0.989258,-0.051514,0.00,0.00,0.00
269,18.725191,-28.793893,9.969466,0.024414,-0.993896,-0.055176,0.00,0.00,0.00
270,18.984733,-27.290076,9.427481,0.020020,-0.994385,-0.046875,0.00,0.00,0.00
271,18.671756,-26.450382,9.297710,0.012695,-1.000488,-0.029541,0.00,0.00,0.00
272,18.786260,-25.038168,9.244275,0.008545,-1.009521,-0.032471,0.00,0.00,0.00
273,19.526718,-23.702290,9.404580,0.000000,-0.987061,-0.022949,0.00,0.00,0.00
274,19.755725,-21.305344,9.709924,-0.020752,-1.019287,0.002197,0.00,0.00,0.00
275,20.442748,-20.687023,9.274809,-0.032227,-0.996094,-0.002686,0.00,0.00,0.00
276,19.381679,-19.335878,9.809160,-0.039795,-0.960449,-0.004150,0.00,0.00,0.00
277,21.503817,-18.389313,9.717557,-0.080566,-1.012451,0.030029,0.00,0.00,0.00
278,19.702290,-17.862595,10.335878,-0.065674,-0.937256,0.001465,0.00,0.00,0.00
279,22.000000,-18.847328,10.381679,-0.078125,-1.012451,0.027832,0.00,0.00,0.00
280,20.045802,-17.847328,11.007634,-0.087891,-0.956299,0.009033,0.00,0.00,0.00
281,22.137405,-20.641221,10.763359,-0.115967,-1.000244,0.025391,0.00,0.00,0.00
282,20.015267,-20.282443,12.374046,-0.118896,-0.943848,0.022217,0.00,0.00,0.00
283,21.038168,-22.587786,12.206107,-0.113037,-0.986328,0.061523,0.00,0.00,0.00
284,20.572519,-23.977099,12.557252,-0.127441,-0.957275,0.029053,0.00,0.00,0.00
285,20.160305,-25.709924,12.641221,-0.143555,-0.962402,0.051270,0.00,0.00,0.00
286,19.938931,-27.717557,12.664122,-0.140625,-0.970703,0.034912,0.00,0.00,0.00
287,19.618321,-29.687023,12.977099,-0.137695,-0.968750,0.042969,0.00,0.00,0.00
288,19.374046,-31.740458,12.671756,-0.136475,-0.970459,0.033691,0.00,0.00,0.00
289,18.854962,-33.465649,12.671756,-0.105957,-0.970947,0.025635,0.00,0.00,0.00
290,19.091603,-35.427481,13.045802,-0.101318,-0.983643,0.017822,0.00,0.00,0.00
291,19.015267,-36.732824,13.015267,-0.098877,-0.987793,-0.003418,0.00,0.00,0.00
292,19.022901,-37.404580,13.251908,-0.098145,-0.983643,0.008057,0.00,0.00,0.00
293,17.923664,-38.977099,14.458015,-0.105957,-1.006592,0.029297,0.00,0.00,0.00
294,18.877863,-37.992366,13.488550,-0.075928,-0.986084,0.047363,0.00,0.00,0.00
295,18.374046,-37.442748,13.679389,-0.068604,-0.986816,0.026367,0.00,0.00,0.00
296,18.732824,-35.564885,13.511450,-0.073730,-0.997803,0.042969,0.00,0.00,0.00
297,18.549618,-34.969466,13.572519,-0.074463,-0.995605,0.041260,0.00,0.00,0.00
298,19.038168,-34.541985,13.541985,-0.088379,-0.991943,0.029297,0.00,0.00,0.00
299,19.320611,-34.145038,13.748092,-0.098633,-0.976318,0.027832,0.00,0.00,0.00
300,19.480916,-32.931298,14.183206,-0.124023,-0.954590,0.036621,0.00,0.00,0.00
301,18.885496,-31.778626,15.000000,-0.135498,-0.938477,0.044189,0.00,0.00,0.00
302,18.961832,-32.274809,15.885496,-0.125977,-0.949219,0.041992,0.00,0.00,0.00
303,18.244275,-31.580153,16.572519,-0.089844,-0.971191,0.052246,0.00,0.00,0.00
304,18.251908,-30.816794,17.175573,-0.048096,-0.987793,0.049805,0.00,0.00,0.00
305,18.366412,-29.137405,17.450382,-0.017334,-0.994141,0.053955,0.00,0.00,0.00
306,18.625954,-27.000000,18.145038,-0.007324,-1.008057,0.062012,0.00,0.00,0.00
307,19.206107,-24.557252,18.656489,-0.004883,-1.007812,0.079102,0.00,0.00,0.00
308,19.335878,-22.740458,18.709924,-0.019287,-1.007324,0.096680,0.00,0.00,0.00
309,19.641221,-21.213740,19.236641,-0.034912,-1.006104,0.097900,0.00,0.00,0.00
310,19.389313,-19.732824,19.450382,-0.029785,-0.996338,0.111084,0.00,0.00,0.00
311,19.114504,-18.183206,20.076336,-0.038330,-0.975830,0.111816,0.00,0.00,0.00
312,19.129771,-16.938931,20.633588,-0.056396,-0.965576,0.115723,0.00,0.00,0.00
313,19.030534,-15.190840,20.854962,-0.061523,-0.966309,0.122070,0.00,0.00,0.00
314,19.312977,-13.473282,20.900763,-0.064453,-0.970947,0.126465,0.00,0.00,0.00
315,19.610687,-12.167939,20.977099,-0.074951,-0.976562,0.116455,0.00,0.00,0.00
316,18.801527,-11.374046,20.992366,-0.079590,-0.955322,0.103760,0.00,0.00,0.00
317,19.007634,-10.488550,21.221374,-0.097168,-0.963379,0.108154,0.00,0.00,0.00
318,19.496183,-6.671756,21.183206,-0.101562,-0.966553,0.136963,0.00,0.00,0.00
319,19.557252,-3.687023,21.312977,-0.088623,-0.964355,0.152588,0.00,0.00,0.00
320,19.129771,-2.824427,21.412214,-0.081055,-0.971680,0.144775,0.00,0.00,0.00
321,17.961832,-3.450382,21.717557,-0.096436,-0.977295,0.126465,0.00,0.00,0.00
322,17.251908,-3.748092,22.068702,-0.132812,-0.975342,0.106934,0.00,0.00,0.00
323,16.343511,-4.427481,22.832061,-0.155273,-0.971436,0.094238,0.00,0.00,0.00
324,15.503817,-5.259542,23.664122,-0.164062,-0.955811,0.088379,0.00,0.00,0.00
325,14.465649,-5.580153,24.526718,-0.144775,-0.948730,0.095215,0.00,0.00,0.00
326,13.778626,-5.511450,25.083969,-0.139404,-0.961182,0.093506,0.00,0.00,0.00
327,13.145038,-5.564885,25.618321,-0.128906,-0.973877,0.085693,0.00,0.00,0.00
328,12.816794,-5.022901,25.748092,-0.126953,-0.980469,0.101562,0.00,0.00,0.00
329,13.076336,-3.977099,25.656489,-0.103516,-0.980957,0.108398,0.00,0.00,0.00
330,13.427481,-2.984733,25.870229,-0.110352,-0.991211,0.113770,0.00,0.00,0.00
331,13.946565,-2.038168,25.671756,-0.128418,-0.978271,0.119141,0.00,0.00,0.00
332,14.694656,-2.213740,25.694656,-0.146973,-0.967041,0.136475,0.00,0.00,0.00
333,14.893130,-2.824427,25.740458,-0.200195,-0.931152,0.140137,0.00,0.00,0.00
334,15.358779,-3.633588,25.603053,-0.233887,-0.912109,0.135010,0.00,0.00,0.00
335,14.816794,-5.236641,25.961832,-0.252686,-0.901855,0.137451,0.00,0.00,0.00
336,13.824427,-7.832061,26.343511,-0.271973,-0.899902,0.119385,0.00,0.00,0.00
337,12.671756,-10.183206,26.862595,-0.270508,-0.909912,0.104980,0.00,0.00,0.00
338,10.748092,-12.244275,27.274809,-0.239258,-0.919922,0.091064,0.00,0.00,0.00
339,9.572519,-14.007634,28.175573,-0.184082,-0.956055,0.089111,0.00,0.00,0.00
340,8.992366,-15.259542,28.725191,-0.161865,-0.986816,0.074219,0.00,0.00,0.00
341,9.137405,-15.465649,29.152672,-0.135742,-0.996826,0.083740,0.00,0.00,0.00
342,12.656489,-12.786260,29.938931,-0.154785,-1.024170,0.161865,0.00,0.00,0.00
343,10.198473,-15.198473,29.595420,-0.127686,-0.988525,0.108154,0.00,0.00,0.00
344,10.129771,-19.488550,29.496183,-0.157471,-0.988525,0.086670,0.00,0.00,0.00
345,9.908397,-20.625954,29.709924,-0.179688,-0.971924,0.070068,0.00,0.00,0.00
346,10.351145,-19.862595,30.458015,-0.181885,-0.943115,0.065430,0.00,0.00,0.00
347,11.343511,-18.381679,31.129771,-0.185547,-0.942871,0.083008,0.00,0.00,0.00
348,12.030534,-17.366412,31.534351,-0.170898,-0.958740,0.090820,0.00,0.00,0.00
349,12.282443,-17.290076,31.832061,-0.149170,-0.965820,0.105713,0.00,0.00,0.00
350,12.526718,-16.068702,31.419847,-0.119873,-0.975586,0.106689,0.00,0.00,0.00
351,13.656489,-13.503817,30.832061,-0.101318,-0.986328,0.101074,0.00,0.00,0.00
352,14.801527,-10.389313,30.175573,-0.085205,-1.004395,0.115723,0.00,0.00,0.00
353,16.335878,-7.954198,29.236641,-0.095215,-1.006836,0.116211,0.00,0.00,0.00
354,18.000000,-5.595420,28.099237,-0.109863,-1.013184,0.107666,0.00,0.00,0.00
355,19.007634,-3.473282,27.175573,-0.130615,-0.991455,0.131592,0.00,0.00,0.00
356,20.259542,-1.732824,26.534351,-0.150146,-0.978027,0.125000,0.00,0.00,0.00
357,20.862595,-1.343511,25.946565,-0.180908,-0.962646,0.123291,0.00,0.00,0.00
358,23.229008,0.549618,25.557252,-0.215332,-0.955322,0.147949,0.00,0.00,0.00
359,25.038168,2.923664,24.961832,-0.249023,-0.944824,0.184082,0.00,0.00,0.00
360,26.190840,3.000000,23.954198,-0.263428,-0.930176,0.190674,0.00,0.00,0.00
361,27.480916,1.824427,22.564885,-0.281982,-0.922363,0.193115,0.00,0.00,0.00
362,27.572519,0.396947,21.541985,-0.309814,-0.910156,0.191895,0.00,0.00,0.00
363,27.572519,-1.503817,20.725191,-0.330322,-0.886719,0.165283,0.00,0.00,0.00
364,27.358779,-4.320611,20.267176,-0.375488,-0.871582,0.145996,0.00,0.00,0.00
365,27.030534,-8.648855,20.366412,-0.379395,-0.863525,0.141113,0.00,0.00,0.00
366,26.305344,-13.229008,21.007634,-0.405518,-0.869629,0.122314,0.00,0.00,0.00
367,25.671756,-16.770992,21.961832,-0.413574,-0.862305,0.119873,0.00,0.00,0.00
368,25.190840,-21.061069,22.679389,-0.406494,-0.858398,0.131348,0.00,0.00,0.00
369,24.435115,-22.519084,22.793893,-0.414795,-0.856445,0.127441,0.00,0.00,0.00
370,23.862595,-24.694656,22.534351,-0.400879,-0.854980,0.114746,0.00,0.00,0.00
371,22.801527,-25.839695,22.374046,-0.393066,-0.870361,0.142334,0.00,0.00,0.00
372,22.603053,-26.419847,22.725191,-0.364502,-0.888428,0.148926,0.00,0.00,0.00
373,22.175573,-27.740458,22.328244,-0.350098,-0.897461,0.159180,0.00,0.00,0.00
374,21.778626,-25.755725,22.320611,-0.332031,-0.902832,0.187988,0.00,0.00,0.00
375,21.717557,-23.419847,21.656489,-0.328125,-0.913086,0.167236,0.00,0.00,0.00
376,20.549618,-21.274809,20.923664,-0.302979,-0.902832,0.169678,0.00,0.00,0.00
377,19.931298,-19.816794,19.832061,-0.289307,-0.909180,0.146973,0.00,0.00,0.00
378,19.061069,-18.641221,18.114504,-0.306396,-0.919922,0.130371,0.00,0.00,0.00
379,17.259542,-20.152672,16.740458,-0.277100,-0.953857,0.108154,0.00,0.00,0.00
380,15.847328,-22.519084,15.931298,-0.249268,-1.001465,0.104004,0.00,0.00,0.00
381,14.274809,-24.015267,15.007634,-0.232666,-1.058350,0.103027,0.00,0.00,0.00
382,13.160305,-24.175573,14.152672,-0.217041,-1.073486,0.103760,0.00,0.00,0.00
383,12.114504,-23.572519,12.282443,-0.203857,-1.068848,0.123047,0.00,0.00,0.00
384,11.969466,-21.656489,10.694656,-0.222168,-1.045898,0.148682,0.00,0.00,0.00
385,11.465649,-20.106870,9.122137,-0.243652,-1.007324,0.181641,0.00,0.00,0.00
386,11.129771,-20.076336,7.801527,-0.260742,-0.967285,0.205078,0.00,0.00,0.00
387,10.320611,-21.816794,6.832061,-0.282471,-0.929932,0.220215,0.00,0.00,0.00
388,9.480916,-23.175573,6.221374,-0.300293,-0.908691,0.234375,0.00,0.00,0.00
389,8.702290,-24.114504,6.343511,-0.299072,-0.885742,0.227051,0.00,0.00,0.00
390,8.068702,-26.152672,6.526718,-0.301758,-0.879883,0.229248,0.00,0.00,0.00
391,7.793893,-26.244275,7.076336,-0.313232,-0.872559,0.220703,0.00,0.00,0.00
392,7.488550,-27.435115,7.358779,-0.323486,-0.864502,0.223145,0.00,0.00,0.00
393,6.969466,-28.679389,7.526718,-0.331055,-0.860840,0.227051,0.00,0.00,0.00
394,6.160305,-30.259542,8.129771,-0.334229,-0.868164,0.238525,0.00,0.00,0.00
395,5.679389,-31.862595,8.167939,-0.340088,-0.867432,0.226318,0.00,0.00,0.00
396,5.328244,-33.717557,8.412214,-0.344971,-0.863525,0.232422,0.00,0.00,0.00
397,5.068702,-34.519084,8.557252,-0.352539,-0.872314,0.238525,0.00,0.00,0.00
398,4.412214,-35.297710,8.496183,-0.338867,-0.872803,0.233398,0.00,0.00,0.00
399,3.954198,-35.954198,8.534351,-0.322754,-0.876709,0.237793,0.00,0.00,0.00
400,3.328244,-36.854962,8.519084,-0.312256,-0.883301,0.221191,0.00,0.00,0.00
401,2.519084,-37.236641,8.938931,-0.295898,-0.885498,0.239258,0.00,0.00,0.00
402,1.786260,-37.633588,9.175573,-0.280518,-0.898193,0.235840,0.00,0.00,0.00
403,1.022901,-38.061069,9.412214,-0.260254,-0.922852,0.224854,0.00,0.00,0.00
404,0.534351,-38.335878,9.641221,-0.239990,-0.924561,0.222168,0.00,0.00,0.00
405,0.320611,-37.732824,9.511450,-0.231689,-0.938477,0.218994,0.00,0.00,0.00
406,-0.351145,-37.091603,9.526718,-0.239014,-0.950684,0.227783,0.00,0.00,0.00
407,-0.923664,-36.877863,9.595420,-0.240723,-0.952148,0.234863,0.00,0.00,0.00
408,-1.755725,-37.870229,9.702290,-0.239014,-0.946777,0.226562,0.00,0.00,0.00
409,-2.480916,-39.412214,9.763359,-0.242920,-0.944336,0.224365,0.00,0.00,0.00
410,-3.053435,-41.122137,9.717557,-0.261963,-0.939697,0.220215,0.00,0.00,0.00
411,-3.687023,-42.007634,9.748092,-0.268066,-0.932617,0.218750,0.00,0.00,0.00
412,-4.458015,-42.862595,9.534351,-0.266113,-0.927979,0.215576,0.00,0.00,0.00
413,-5.129771,-43.152672,9.557252,-0.259766,-0.925537,0.223877,0.00,0.00,0.00
414,-5.122137,-42.946565,9.267176,-0.258789,-0.930176,0.222412,0.00,0.00,0.00
415,-4.900763,-42.770992,9.175573,-0.252686,-0.929443,0.233398,0.00,0.00,0.00
416,-4.793893,-42.587786,8.549618,-0.251221,-0.935059,0.224365,0.00,0.00,0.00
417,-4.381679,-42.885496,8.236641,-0.235840,-0.921387,0.233643,0.00,0.00,0.00
418,-4.312977,-41.534351,7.954198,-0.237061,-0.919434,0.241211,0.00,0.00,0.00
419,-4.152672,-40.625954,7.267176,-0.241699,-0.913086,0.234863,0.00,0.00,0.00
420,-3.900763,-39.763359,6.778626,-0.243408,-0.913330,0.246094,0.00,0.00,0.00
421,-3.480916,-38.465649,6.496183,-0.245850,-0.915527,0.242188,0.00,0.00,0.00
422,-3.442748,-37.587786,6.290076,-0.245850,-0.914551,0.245850,0.00,0.00,0.00
423,-3.450382,-37.091603,6.152672,-0.258545,-0.927246,0.231934,0.00,0.00,0.00
424,-3.679389,-37.091603,5.877863,-0.268311,-0.932861,0.224609,0.00,0.00,0.00
425,-3.656489,-36.687023,5.625954,-0.274658,-0.937256,0.201660,0.00,0.00,0.00
426,-3.648855,-36.580153,5.175573,-0.279541,-0.945312,0.213623,0.00,0.00,0.00
427,-3.671756,-36.427481,5.000000,-0.280518,-0.943359,0.222900,0.00,0.00,0.00
428,-3.221374,-36.969466,4.946565,-0.280762,-0.944092,0.218750,0.00,0.00,0.00
429,-2.396947,-37.511450,4.732824,-0.279297,-0.929199,0.233887,0.00,0.00,0.00
430,-1.977099,-37.595420,4.106870,-0.273682,-0.921143,0.260986,0.00,0.00,0.00
431,-1.412214,-38.030534,3.687023,-0.255371,-0.902100,0.269043,0.00,0.00,0.00
432,-0.847328,-38.618321,2.526718,-0.255371,-0.890625,0.276855,0.00,0.00,0.00
433,-0.603053,-39.687023,1.763359,-0.244141,-0.880371,0.271729,0.00,0.00,0.00
434,-0.549618,-41.083969,0.267176,-0.235107,-0.872070,0.273926,0.00,0.00,0.00
435,-0.122137,-42.404580,-1.045802,-0.245605,-0.865723,0.275146,0.00,0.00,0.00
436,-0.328244,-44.106870,-2.068702,-0.252197,-0.863037,0.257568,0.00,0.00,0.00
437,-0.114504,-46.343511,-3.022901,-0.262451,-0.863770,0.260254,0.00,0.00,0.00
438,0.106870,-48.137405,-4.000000,-0.259521,-0.874756,0.258789,0.00,0.00,0.00
439,0.030534,-50.007634,-4.641221,-0.269775,-0.873535,0.259277,0.00,0.00,0.00
440,0.007634,-51.496183,-5.221374,-0.273926,-0.884277,0.262207,0.00,0.00,0.00
441,-0.198473,-52.488550,-5.595420,-0.278320,-0.900391,0.253174,0.00,0.00,0.00
442,-0.526718,-53.564885,-5.900763,-0.283691,-0.902588,0.254639,0.00,0.00,0.00
443,-0.816794,-54.564885,-6.221374,-0.287842,-0.909668,0.244629,0.00,0.00,0.00
444,-1.557252,-55.251908,-6.610687,-0.287109,-0.909424,0.245117,0.00,0.00,0.00
445,-2.045802,-56.160305,-6.732824,-0.282959,-0.904785,0.235596,0.00,0.00,0.00
446,-2.770992,-56.374046,-6.847328,-0.276611,-0.916504,0.233887,0.00,0.00,0.00
447,-3.381679,-56.748092,-6.603053,-0.266357,-0.911377,0.229736,0.00,0.00,0.00
448,-4.045802,-56.832061,-6.343511,-0.260498,-0.911621,0.237061,0.00,0.00,0.00
449,-4.801527,-56.068702,-6.000000,-0.248047,-0.913330,0.245605,0.00,0.00,0.00
450,-5.809160,-55.290076,-6.030534,-0.244629,-0.917969,0.238037,0.00,0.00,0.00
451,-6.465649,-54.038168,-6.198473,-0.221680,-0.928467,0.247559,0.00,0.00,0.00
452,-7.137405,-52.832061,-6.145038,-0.217285,-0.929932,0.237793,0.00,0.00,0.00
453,-8.068702,-51.412214,-6.137405,-0.209961,-0.935303,0.238770,0.00,0.00,0.00
454,-9.038168,-50.419847,-6.412214,-0.197998,-0.940918,0.243164,0.00,0.00,0.00
455,-10.091603,-49.656489,-6.076336,-0.178467,-0.954102,0.230957,0.00,0.00,0.00
456,-10.786260,-48.297710,-5.923664,-0.188232,-0.974365,0.250000,0.00,0.00,0.00
457,-11.687023,-47.496183,-6.374046,-0.194092,-0.984619,0.252197,0.00,0.00,0.00
458,-12.213740,-47.954198,-6.725191,-0.189209,-0.989014,0.245850,0.00,0.00,0.00
459,-13.083969,-48.297710,-7.854962,-0.172607,-0.984619,0.236328,0.00,0.00,0.00
460,-13.977099,-48.488550,-8.870229,-0.162842,-0.978760,0.227539,0.00,0.00,0.00
461,-14.625954,-48.435115,-10.129771,-0.151123,-0.970703,0.227539,0.00,0.00,0.00
462,-15.221374,-47.167939,-11.320611,-0.132324,-0.960693,0.223389,0.00,0.00,0.00
463,-15.969466,-45.832061,-12.435115,-0.102295,-0.957031,0.210938,0.00,0.00,0.00
464,-16.702290,-45.038168,-13.595420,-0.100098,-0.951172,0.200439,0.00,0.00,0.00
465,-17.526718,-44.106870,-15.458015,-0.096680,-0.946533,0.193359,0.00,0.00,0.00
466,-18.511450,-42.564885,-16.931298,-0.071533,-0.947754,0.209961,0.00,0.00,0.00
467,-19.068702,-39.977099,-18.000000,-0.051514,-0.936279,0.204590,0.00,0.00,0.00
468,-19.603053,-36.541985,-19.595420,-0.056885,-0.939697,0.191895,0.00,0.00,0.00
469,-19.977099,-33.580153,-21.099237,-0.051025,-0.942871,0.196045,0.00,0.00,0.00
470,-20.625954,-31.190840,-22.908397,-0.056396,-0.942139,0.198730,0.00,0.00,0.00
471,-21.267176,-29.328244,-24.511450,-0.044922,-0.947021,0.195557,0.00,0.00,0.00
472,-21.625954,-28.053435,-26.190840,-0.037109,-0.944824,0.188965,0.00,0.00,0.00
473,-21.870229,-26.122137,-27.450382,-0.043213,-0.938965,0.190674,0.00,0.00,0.00
474,-21.396947,-24.679389,-28.954198,-0.049805,-0.953369,0.191895,0.00,0.00,0.00
475,-20.954198,-23.847328,-30.160305,-0.046143,-0.953613,0.203857,0.00,0.00,0.00
476,-20.122137,-23.839695,-31.694656,-0.061279,-0.966553,0.198242,0.00,0.00,0.00
477,-19.374046,-23.793893,-32.885496,-0.077637,-0.987793,0.206055,0.00,0.00,0.00
478,-18.511450,-24.076336,-33.977099,-0.091553,-1.007812,0.226807,0.00,0.00,0.00
479,-17.167939,-24.343511,-35.396947,-0.101807,-1.017090,0.199707,0.00,0.00,0.00
480,-16.167939,-26.519084,-36.900763,-0.109619,-1.016602,0.200439,0.00,0.00,0.00
481,-14.702290,-29.480916,-38.732824,-0.118408,-1.014404,0.172852,0.00,0.00,0.00
482,-13.572519,-32.603053,-40.641221,-0.128662,-0.998047,0.163574,0.00,0.00,0.00
483,-13.068702,-35.977099,-42.671756,-0.125000,-0.975586,0.151611,0.00,0.00,0.00
484,-12.786260,-39.160305,-44.526718,-0.137695,-0.969727,0.147949,0.00,0.00,0.00
485,-12.236641,-41.786260,-46.465649,-0.134521,-0.964600,0.114502,0.00,0.00,0.00
486,-11.763359,-44.938931,-48.633588,-0.129639,-0.961182,0.102295,0.00,0.00,0.00
487,-11.633588,-48.603053,-50.503817,-0.117188,-0.960205,0.072998,0.00,0.00,0.00
488,-11.435115,-51.526718,-51.992366,-0.102783,-0.963135,0.050293,0.00,0.00,0.00
489,-11.251908,-51.877863,-53.183206,-0.108398,-0.959473,0.055176,0.00,0.00,0.00
490,-11.419847,-52.809160,-54.717557,-0.108154,-0.965820,0.058105,0.00,0.00,0.00
491,-12.000000,-53.847328,-56.496183,-0.089355,-0.977539,0.035156,0.00,0.00,0.00
492,-12.526718,-54.770992,-58.480916,-0.070068,-0.987793,0.029785,0.00,0.00,0.00
493,-13.259542,-53.793893,-60.122137,-0.034912,-0.982422,0.011230,0.00,0.00,0.00
494,-14.053435,-52.167939,-61.564885,-0.011475,-0.974854,0.018555,0.00,0.00,0.00
495,-14.664122,-50.755725,-62.755725,-0.003662,-0.966064,0.006836,0.00,0.00,0.00
496,-15.190840,-47.816794,-63.351145,0.001465,-0.979736,0.011230,0.00,0.00,0.00
497,-15.679389,-45.679389,-63.587786,-0.004150,-1.002441,0.008545,0.00,0.00,0.00
498,-16.526718,-44.099237,-63.274809,-0.007568,-1.015381,-0.005127,0.00,0.00,0.00
499,-17.740458,-42.396947,-63.045802,-0.016602,-1.034912,-0.006104,0.00,0.00,0.00
500,-18.969466,-40.832061,-63.198473,-0.021973,-1.030762,-0.004639,0.00,0.00,0.00
501,-20.458015,-39.671756,-63.083969,-0.018311,-1.024658,-0.008301,0.00,0.00,0.00
502,-22.938931,-37.961832,-62.755725,-0.013672,-1.015381,-0.017578,0.00,0.00,0.00
503,-25.274809,-35.893130,-62.633588,0.005127,-0.996094,-0.011475,0.00,0.00,0.00
504,-27.282443,-34.396947,-63.290076,0.031494,-0.983398,-0.020996,0.00,0.00,0.00
505,-28.847328,-32.732824,-62.885496,0.061768,-0.978027,-0.011230,0.00,0.00,0.00
506,-29.312977,-29.648855,-62.450382,0.099854,-0.998535,-0.006348,0.00,0.00,0.00
507,-29.557252,-26.305344,-61.732824,0.092285,-1.016602,0.030762,0.00,0.00,0.00
508,-29.786260,-23.290076,-60.893130,0.089111,-1.007080,0.074707,0.00,0.00,0.00
509,-29.954198,-21.755725,-59.969466,0.066895,-0.993896,0.110352,0.00,0.00,0.00
510,-30.137405,-18.396947,-59.900763,0.060547,-1.000488,0.143799,0.00,0.00,0.00
511,-30.366412,-16.229008,-59.633588,0.048584,-0.989746,0.146729,0.00,0.00,0.00
512,-31.213740,-16.526718,-59.229008,0.040039,-0.989502,0.153809,0.00,0.00,0.00
513,-32.106870,-16.343511,-59.320611,0.024414,-0.988770,0.138184,0.00,0.00,0.00
514,-33.030534,-17.022901,-59.167939,0.013428,-0.978027,0.142334,0.00,0.00,0.00
515,-34.549618,-18.603053,-59.694656,0.030029,-0.956543,0.116943,0.00,0.00,0.00
516,-35.312977,-19.282443,-59.328244,0.047119,-0.954102,0.124268,0.00,0.00,0.00
517,-35.992366,-19.427481,-58.717557,0.053711,-0.963867,0.139404,0.00,0.00,0.00
518,-36.557252,-19.801527,-58.381679,0.066895,-0.965576,0.155029,0.00,0.00,0.00
519,-36.885496,-20.725191,-57.816794,0.079346,-0.977539,0.155762,0.00,0.00,0.00
520,-37.244275,-20.786260,-57.488550,0.075684,-0.995361,0.166504,0.00,0.00,0.00
521,-38.038168,-20.740458,-57.465649,0.089111,-0.983887,0.170898,0.00,0.00,0.00
522,-38.564885,-20.427481,-56.938931,0.080078,-0.979492,0.170654,0.00,0.00,0.00
523,-38.625954,-19.183206,-56.572519,0.062500,-0.966309,0.177734,0.00,0.00,0.00
524,-39.389313,-18.770992,-56.229008,0.052979,-0.961670,0.188721,0.00,0.00,0.00
525,-40.412214,-18.893130,-56.038168,0.066895,-0.958252,0.171387,0.00,0.00,0.00
526,-41.519084,-20.114504,-55.961832,0.071777,-0.952393,0.164307,0.00,0.00,0.00
527,-42.244275,-20.916031,-55.832061,0.092529,-0.952148,0.147705,0.00,0.00,0.00
528,-42.801527,-20.442748,-55.251908,0.098145,-0.942627,0.150879,0.00,0.00,0.00
529,-43.396947,-20.923664,-55.549618,0.116211,-0.935547,0.156250,0.00,0.00,0.00
530,-44.038168,-21.229008,-55.198473,0.141113,-0.934814,0.166748,0.00,0.00,0.00
531,-44.129771,-20.786260,-54.709924,0.165527,-0.937012,0.161377,0.00,0.00,0.00
532,-44.145038,-19.427481,-54.503817,0.155762,-0.956543,0.167725,0.00,0.00,0.00
533,-44.206107,-17.541985,-54.091603,0.147217,-0.970703,0.167725,0.00,0.00,0.00
534,-44.137405,-17.488550,-53.312977,0.140625,-0.953857,0.162354,0.00,0.00,0.00
535,-44.320611,-16.549618,-52.580153,0.118164,-0.962158,0.169434,0.00,0.00,0.00
536,-44.595420,-16.832061,-51.839695,0.092041,-0.962646,0.166748,0.00,0.00,0.00
537,-44.740458,-18.305344,-51.305344,0.087646,-0.956543,0.156494,0.00,0.00,0.00
538,-46.000000,-19.549618,-50.916031,0.084717,-0.938965,0.146973,0.00,0.00,0.00
539,-47.099237,-20.442748,-50.549618,0.088135,-0.927490,0.134521,0.00,0.00,0.00
540,-47.282443,-21.648855,-49.786260,0.108643,-0.927734,0.131104,0.00,0.00,0.00
541,-47.541985,-23.534351,-49.465649,0.121338,-0.945068,0.132812,0.00,0.00,0.00
542,-48.687023,-25.312977,-49.236641,0.145752,-0.947510,0.128174,0.00,0.00,0.00
543,-49.389313,-26.083969,-48.229008,0.162842,-0.952637,0.136475,0.00,0.00,0.00
544,-49.312977,-26.450382,-47.412214,0.170654,-0.969238,0.143311,0.00,0.00,0.00
545,-49.213740,-25.893130,-46.267176,0.167725,-0.991943,0.145996,0.00,0.00,0.00
546,-50.068702,-25.778626,-45.480916,0.180664,-1.009521,0.159424,0.00,0.00,0.00
547,-50.916031,-25.870229,-44.419847,0.185791,-1.014404,0.159668,0.00,0.00,0.00
548,-51.328244,-25.244275,-43.534351,0.172607,-0.999512,0.158691,0.00,0.00,0.00
549,-52.198473,-24.717557,-42.862595,0.170654,-0.988037,0.132324,0.00,0.00,0.00
550,-53.267176,-24.351145,-41.740458,0.169922,-0.966553,0.118164,0.00,0.00,0.00
551,-54.274809,-23.641221,-41.213740,0.167969,-0.955078,0.095703,0.00,0.00,0.00
552,-54.213740,-21.671756,-41.229008,0.196777,-0.955078,0.090820,0.00,0.00,0.00
553,-54.740458,-19.687023,-40.229008,0.229004,-0.949707,0.081299,0.00,0.00,0.00
554,-55.099237,-17.503817,-39.145038,0.229736,-0.958740,0.067627,0.00,0.00,0.00
555,-54.312977,-14.328244,-36.305344,0.199707,-0.968018,0.082031,0.00,0.00,0.00
556,-53.610687,-11.923664,-33.778626,0.158691,-0.970947,0.093506,0.00,0.00,0.00
557,-54.534351,-10.702290,-32.038168,0.146240,-0.996826,0.129150,0.00,0.00,0.00
558,-54.450382,-9.618321,-30.519084,0.165771,-1.022461,0.128174,0.00,0.00,0.00
559,-53.511450,-8.679389,-29.839695,0.204834,-1.029297,0.133545,0.00,0.00,0.00
560,-52.167939,-8.396947,-29.534351,0.224121,-1.021973,0.125000,0.00,0.00,0.00
561,-51.595420,-8.213740,-29.534351,0.232422,-1.004150,0.125488,0.00,0.00,0.00
562,-50.496183,-8.450382,-28.519084,0.223145,-0.982910,0.115723,0.00,0.00,0.00
563,-48.977099,-9.770992,-27.854962,0.190918,-0.963867,0.123779,0.00,0.00,0.00
564,-48.129771,-11.610687,-28.000000,0.189209,-0.945068,0.109863,0.00,0.00,0.00
565,-47.305344,-14.053435,-27.938931,0.174805,-0.923096,0.109131,0.00,0.00,0.00
566,-46.053435,-15.854962,-27.625954,0.172119,-0.912842,0.117432,0.00,0.00,0.00
567,-45.381679,-17.778626,-27.633588,0.168701,-0.910645,0.105713,0.00,0.00,0.00
568,-44.809160,-21.145038,-27.694656,0.184570,-0.923828,0.089600,0.00,0.00,0.00
569,-43.908397,-22.435115,-27.694656,0.188232,-0.937744,0.082764,0.00,0.00,0.00
570,-42.557252,-24.015267,-27.412214,0.188965,-0.962646,0.093018,0.00,0.00,0.00
571,-35.450382,-24.335878,-24.389313,0.155273,-1.039795,0.209473,0.00,0.00,0.00
572,-17.282443,-22.480916,-19.137405,-0.005371,-1.241211,0.541504,0.00,0.00,0.00
573,0.290076,-27.923664,-11.847328,-0.267334,-1.358887,0.989258,0.00,0.00,0.00
574,5.274809,-42.618321,-14.664122,-0.307861,-1.315186,1.186035,0.00,0.00,0.00
575,-0.763359,-71.709924,-17.549618,-0.246582,-1.096191,0.862061,0.00,0.00,0.00
576,0.541985,-85.534351,-13.847328,-0.303711,-0.877441,0.462158,0.00,0.00,0.00
577,1.938931,-77.381679,-15.763359,-0.218994,-0.914795,0.218018,0.00,0.00,0.00
578,4.885496,-68.259542,-13.740458,0.030762,-0.851562,0.008545,0.00,0.00,0.00
579,8.152672,-63.541985,-10.969466,0.128418,-0.880859,-0.071289,0.00,0.00,0.00
580,8.381679,-55.992366,-14.282443,0.297607,-0.986572,-0.095459,0.00,0.00,0.00
581,13.396947,-52.687023,-9.534351,0.447266,-0.822754,-0.056885,0.00,0.00,0.00
582,14.885496,-45.419847,-11.541985,0.541748,-0.864014,-0.054688,0.00,0.00,0.00
583,18.610687,-34.145038,-14.473282,0.680664,-0.946777,-0.088135,0.00,0.00,0.00
584,22.549618,-18.152672,-14.587786,0.675049,-0.979980,-0.097900,0.00,0.00,0.00
585,26.183206,-2.778626,-14.343511,0.595215,-0.962646,-0.074463,0.00,0.00,0.00
586,27.770992,4.961832,-12.374046,0.482910,-0.904297,-0.023193,0.00,0.00,0.00
587,28.847328,13.427481,-10.916031,0.374756,-0.944336,0.021240,0.00,0.00,0.00
588,28.534351,20.290076,-9.091603,0.296631,-0.938965,0.053955,0.00,0.00,0.00
589,26.580153,15.511450,-7.358779,0.225342,-0.931885,0.043945,0.00,0.00,0.00
590,24.549618,11.015267,-7.427481,0.132812,-0.919434,0.025879,0.00,0.00,0.00
591,22.702290,8.832061,-8.404580,0.084473,-0.953857,-0.013428,0.00,0.00,0.00
592,21.610687,6.198473,-10.213740,0.099121,-0.987061,-0.021240,0.00,0.00,0.00
593,21.847328,2.030534,-9.190840,0.092041,-0.970947,0.005127,0.00,0.00,0.00
594,19.854962,-0.992366,-10.610687,0.099365,-1.003418,0.009766,0.00,0.00,0.00
595,19.374046,-6.328244,-11.458015,0.130859,-1.029297,0.002930,0.00,0.00,0.00
596,18.259542,-10.396947,-12.694656,0.126465,-1.049072,0.002441,0.00,0.00,0.00
597,16.633588,-12.030534,-14.022901,0.120850,-1.040771,-0.004639,0.00,0.00,0.00
598,14.648855,-12.954198,-14.770992,0.109131,-1.010986,-0.001953,0.00,0.00,0.00
599,12.175573,-15.458015,-15.519084,0.144043,-0.957031,0.006592,0.00,0.00,0.00
600,10.160305,-18.511450,-15.801527,0.203369,-0.931885,0.020020,0.00,0.00,0.00
601,8.732824,-19.458015,-16.244275,0.262451,-0.917480,0.043701,0.00,0.00,0.00
602,8.343511,-18.580153,-17.419847,0.299805,-0.896973,0.059082,0.00,0.00,0.00
603,8.167939,-17.137405,-18.450382,0.310547,-0.910400,0.079102,0.00,0.00,0.00
604,8.068702,-15.045802,-20.290076,0.339600,-0.911377,0.104980,0.00,0.00,0.00
605,8.183206,-13.778626,-21.122137,0.353271,-0.912109,0.102051,0.00,0.00,0.00
606,8.000000,-12.885496,-22.091603,0.353027,-0.931641,0.094482,0.00,0.00,0.00
607,7.160305,-11.923664,-22.656489,0.368164,-0.926270,0.079590,0.00,0.00,0.00
608,6.664122,-9.793893,-22.656489,0.356689,-0.949951,0.066162,0.00,0.00,0.00
609,5.297710,-6.641221,-22.603053,0.378662,-0.958008,0.056152,0.00,0.00,0.00
610,4.702290,-4.396947,-21.541985,0.404541,-0.977783,0.035400,0.00,0.00,0.00
611,4.343511,-2.366412,-20.557252,0.409912,-0.985596,0.033203,0.00,0.00,0.00
612,4.160305,0.717557,-19.526718,0.406738,-0.963623,0.024658,0.00,0.00,0.00
613,4.007634,4.312977,-18.870229,0.399902,-0.946045,0.014893,0.00,0.00,0.00
614,4.458015,5.969466,-18.671756,0.403564,-0.941650,0.007080,0.00,0.00,0.00
615,4.519084,5.038168,-19.007634,0.385742,-0.956787,-0.004395,0.00,0.00,0.00
616,4.816794,2.687023,-18.786260,0.334229,-0.969238,-0.041504,0.00,0.00,0.00
617,5.076336,0.931298,-19.198473,0.297607,-0.965088,-0.047119,0.00,0.00,0.00
618,4.931298,-1.618321,-19.648855,0.291504,-0.949219,-0.042725,0.00,0.00,0.00
619,4.809160,-4.366412,-19.954198,0.315186,-0.954590,-0.037598,0.00,0.00,0.00
620,5.404580,-6.381679,-19.763359,0.327637,-0.964600,-0.056152,0.00,0.00,0.00
621,6.274809,-7.748092,-19.083969,0.361328,-0.980225,-0.050049,0.00,0.00,0.00
622,7.129771,-8.564885,-18.458015,0.372559,-0.967285,-0.033936,0.00,0.00,0.00
623,8.076336,-8.450382,-18.099237,0.379150,-0.940430,-0.038574,0.00,0.00,0.00
624,9.374046,-7.114504,-17.656489,0.398438,-0.935547,-0.011719,0.00,0.00,0.00
625,10.946565,-5.702290,-17.106870,0.432861,-0.946045,-0.020020,0.00,0.00,0.00
626,12.595420,-5.183206,-16.053435,0.433350,-0.965332,-0.026611,0.00,0.00,0.00
627,13.954198,-5.129771,-14.832061,0.409912,-0.958740,-0.045898,0.00,0.00,0.00
628,15.175573,-4.946565,-14.061069,0.400391,-0.949707,-0.064697,0.00,0.00,0.00
629,16.221374,-4.778626,-13.114504,0.382324,-0.951172,-0.074951,0.00,0.00,0.00
630,16.618321,-4.549618,-12.358779,0.374756,-0.949707,-0.080566,0.00,0.00,0.00
631,17.068702,-4.419847,-11.389313,0.380615,-0.952637,-0.060547,0.00,0.00,0.00
632,17.251908,-3.755725,-10.450382,0.386475,-0.948730,-0.050049,0.00,0.00,0.00
633,16.801527,-3.267176,-9.625954,0.397461,-0.941406,-0.029053,0.00,0.00,0.00
634,16.969466,-2.992366,-8.358779,0.400879,-0.938965,-0.006104,0.00,0.00,0.00
635,16.587786,-2.938931,-7.419847,0.399658,-0.930664,0.006104,0.00,0.00,0.00
636,16.343511,-2.854962,-6.259542,0.405518,-0.922363,0.026367,0.00,0.00,0.00
637,16.229008,-3.923664,-5.381679,0.392090,-0.923828,0.048340,0.00,0.00,0.00
638,15.389313,-3.740458,-5.534351,0.403809,-0.998047,0.027100,0.00,0.00,0.00
639,16.251908,-5.267176,-3.259542,0.389648,-0.947021,0.015625,0.00,0.00,0.00
640,15.427481,-6.190840,-3.114504,0.382568,-0.939941,-0.002441,0.00,0.00,0.00
641,14.557252,-8.259542,-2.038168,0.414307,-0.937500,-0.026855,0.00,0.00,0.00
642,14.526718,-9.366412,-0.526718,0.396729,-0.932373,-0.007324,0.00,0.00,0.00
643,14.572519,-9.381679,0.832061,0.407959,-0.938232,-0.002441,0.00,0.00,0.00
644,14.358779,-8.603053,1.793893,0.411621,-0.940674,0.018066,0.00,0.00,0.00
645,14.076336,-8.801527,2.916031,0.410156,-0.940674,0.015137,0.00,0.00,0.00
646,13.961832,-10.137405,4.190840,0.393555,-0.942383,-0.006104,0.00,0.00,0.00
647,14.198473,-11.648855,5.137405,0.377441,-0.949219,0.004150,0.00,0.00,0.00
648,14.465649,-11.977099,6.236641,0.374756,-0.950928,0.001465,0.00,0.00,0.00
649,15.122137,-11.564885,7.152672,0.371582,-0.945801,-0.001953,0.00,0.00,0.00
650,15.274809,-11.335878,8.320611,0.359131,-0.942871,0.000000,0.00,0.00,0.00
651,14.709924,-11.366412,8.671756,0.356689,-0.929199,-0.007812,0.00,0.00,0.00
652,14.404580,-11.992366,9.511450,0.360840,-0.932373,-0.019287,0.00,0.00,0.00
653,14.244275,-12.564885,10.351145,0.362549,-0.930908,-0.021973,0.00,0.00,0.00
654,14.381679,-12.389313,10.969466,0.362305,-0.938965,-0.001709,0.00,0.00,0.00
655,14.488550,-12.358779,11.832061,0.361328,-0.943115,0.010986,0.00,0.00,0.00
656,14.702290,-12.503817,12.358779,0.371338,-0.944336,0.023682,0.00,0.00,0.00
657,15.045802,-12.053435,12.824427,0.386475,-0.936279,0.039551,0.00,0.00,0.00
658,15.229008,-12.160305,13.595420,0.393311,-0.937744,0.031250,0.00,0.00,0.00
659,15.587786,-12.694656,14.862595,0.389893,-0.941406,0.011963,0.00,0.00,0.00
660,16.076336,-12.465649,15.465649,0.385498,-0.949463,0.004639,0.00,0.00,0.00
661,16.351145,-12.694656,16.221374,0.376709,-0.941895,0.018555,0.00,0.00,0.00
662,16.732824,-12.847328,16.671756,0.364990,-0.943359,0.016357,0.00,0.00,0.00
663,16.893130,-13.076336,17.137405,0.341553,-0.951172,0.023193,0.00,0.00,0.00
664,17.358779,-12.824427,17.519084,0.321777,-0.940918,0.027588,0.00,0.00,0.00
665,17.885496,-11.870229,16.969466,0.315430,-0.934814,0.046143,0.00,0.00,0.00
666,17.671756,-10.832061,16.870229,0.325684,-0.937256,0.050781,0.00,0.00,0.00
667,17.709924,-10.129771,16.549618,0.333008,-0.939697,0.041260,0.00,0.00,0.00
668,17.427481,-9.549618,16.557252,0.327148,-0.941406,0.010742,0.00,0.00,0.00
669,17.656489,-8.419847,16.877863,0.321045,-0.951904,0.005127,0.00,0.00,0.00
670,18.465649,-6.015267,17.038168,0.317627,-0.938721,0.038818,0.00,0.00,0.00
671,18.129771,-4.625954,16.923664,0.319580,-0.933838,0.065674,0.00,0.00,0.00
672,17.748092,-4.595420,16.503817,0.313232,-0.950195,0.080078,0.00,0.00,0.00
673,17.549618,-4.732824,16.114504,0.312744,-0.959961,0.062988,0.00,0.00,0.00
674,17.335878,-4.022901,16.114504,0.304932,-0.958740,0.031738,0.00,0.00,0.00
675,17.488550,-3.717557,15.931298,0.287842,-0.959229,0.011230,0.00,0.00,0.00
676,16.969466,-4.664122,15.641221,0.258545,-0.945557,0.031250,0.00,0.00,0.00
677,15.778626,-6.274809,15.099237,0.231445,-0.955078,0.042969,0.00,0.00,0.00
678,15.832061,-8.290076,14.679389,0.220947,-0.962158,0.044189,0.00,0.00,0.00
679,16.213740,-9.167939,13.679389,0.223633,-0.962158,0.023193,0.00,0.00,0.00
680,16.091603,-10.763359,12.328244,0.258789,-0.956055,0.017822,0.00,0.00,0.00
681,16.656489,-12.091603,11.687023,0.261230,-0.957764,0.022949,0.00,0.00,0.00
682,17.412214,-13.007634,11.183206,0.272705,-0.949463,0.026123,0.00,0.00,0.00
683,17.496183,-13.404580,11.022901,0.280762,-0.939453,0.041260,0.00,0.00,0.00
684,17.564885,-13.465649,11.007634,0.297607,-0.942627,0.054688,0.00,0.00,0.00
685,17.603053,-13.793893,10.839695,0.294434,-0.954834,0.068359,0.00,0.00,0.00
686,17.809160,-13.427481,10.793893,0.300537,-0.976074,0.063477,0.00,0.00,0.00
687,17.679389,-12.687023,10.931298,0.296631,-0.979248,0.036621,0.00,0.00,0.00
688,18.206107,-13.137405,11.038168,0.283447,-0.979004,0.015869,0.00,0.00,0.00
689,18.038168,-13.511450,10.839695,0.252441,-0.980469,0.043457,0.00,0.00,0.00
690,17.748092,-14.213740,10.427481,0.246338,-0.984375,0.072021,0.00,0.00,0.00
691,17.496183,-15.557252,10.076336,0.232178,-0.991211,0.057373,0.00,0.00,0.00
692,17.213740,-18.175573,9.488550,0.227783,-0.997314,0.031738,0.00,0.00,0.00
693,17.305344,-20.679389,8.816794,0.225586,-0.989258,0.041504,0.00,0.00,0.00
694,17.206107,-23.251908,7.854962,0.219971,-0.991699,0.049805,0.00,0.00,0.00
695,17.122137,-26.221374,7.022901,0.212891,-1.002197,0.075439,0.00,0.00,0.00
696,17.648855,-27.793893,5.709924,0.216309,-0.996582,0.071289,0.00,0.00,0.00
697,18.580153,-28.679389,5.045802,0.259766,-0.998047,0.044189,0.00,0.00,0.00
698,19.519084,-29.221374,4.984733,0.296387,-1.003662,0.025635,0.00,0.00,0.00
699,20.015267,-28.450382,5.809160,0.328857,-1.006592,0.041260,0.00,0.00,0.00
700,19.603053,-26.801527,6.229008,0.360107,-1.022461,0.059082,0.00,0.00,0.00
701,19.618321,-24.587786,7.435115,0.354248,-1.035889,0.063232,0.00,0.00,0.00
702,20.534351,-21.946565,8.183206,0.345215,-1.044678,0.068115,0.00,0.00,0.00
703,20.213740,-19.572519,9.076336,0.330078,-1.053711,0.079590,0.00,0.00,0.00
704,21.251908,-18.839695,9.351145,0.336670,-1.066895,0.092773,0.00,0.00,0.00
705,21.717557,-18.900763,9.587786,0.331543,-1.063477,0.080322,0.00,0.00,0.00
706,21.625954,-18.877863,10.824427,0.322021,-1.077393,0.093262,0.00,0.00,0.00
707,22.076336,-20.038168,11.702290,0.289307,-1.109375,0.095947,0.00,0.00,0.00
708,22.778626,-22.809160,12.549618,0.259521,-1.135010,0.068604,0.00,0.00,0.00
709,23.404580,-26.496183,13.442748,0.220459,-1.143311,0.031738,0.00,0.00,0.00
710,23.786260,-29.580153,14.053435,0.211670,-1.162109,0.074951,0.00,0.00,0.00
711,23.358779,-33.282443,13.900763,0.223877,-1.171631,0.122070,0.00,0.00,0.00
712,23.954198,-37.381679,13.496183,0.228027,-1.180420,0.115723,0.00,0.00,0.00
713,25.007634,-38.343511,13.076336,0.223633,-1.189453,0.116943,0.00,0.00,0.00
714,25.488550,-37.732824,12.862595,0.244629,-1.188477,0.112793,0.00,0.00,0.00
715,24.893130,-37.519084,12.893130,0.258545,-1.161865,0.129639,0.00,0.00,0.00
716,23.358779,-37.656489,12.610687,0.282471,-1.152588,0.141846,0.00,0.00,0.00
717,22.435115,-41.099237,12.946565,0.273438,-1.139893,0.135742,0.00,0.00,0.00
718,21.557252,-42.763359,13.770992,0.243652,-1.105469,0.115967,0.00,0.00,0.00
719,20.213740,-42.343511,14.450382,0.227295,-1.062500,0.102783,0.00,0.00,0.00
720,20.198473,-40.351145,14.427481,0.251465,-1.047607,0.103271,0.00,0.00,0.00
721,19.259542,-38.832061,14.267176,0.289551,-1.028076,0.106689,0.00,0.00,0.00
722,18.717557,-37.916031,14.755725,0.308350,-1.016602,0.098877,0.00,0.00,0.00
723,18.053435,-38.038168,15.641221,0.314941,-0.996582,0.102051,0.00,0.00,0.00
724,17.847328,-35.526718,15.267176,0.319580,-1.020996,0.120361,0.00,0.00,0.00
725,16.648855,-34.183206,14.908397,0.337158,-1.010010,0.127686,0.00,0.00,0.00
726,16.213740,-33.488550,15.267176,0.326904,-1.003906,0.133789,0.00,0.00,0.00
727,15.923664,-33.519084,15.877863,0.306641,-0.993652,0.131592,0.00,0.00,0.00
728,16.213740,-31.473282,15.213740,0.305908,-1.004395,0.130859,0.00,0.00,0.00
729,15.931298,-29.809160,14.358779,0.289062,-0.984619,0.126221,0.00,0.00,0.00
730,16.366412,-28.885496,14.152672,0.286377,-0.971924,0.133545,0.00,0.00,0.00
731,16.877863,-28.358779,13.992366,0.275391,-0.961670,0.156006,0.00,0.00,0.00
732,17.106870,-27.374046,14.213740,0.263184,-0.958252,0.148193,0.00,0.00,0.00
733,17.687023,-26.839695,14.022901,0.250488,-0.946045,0.159180,0.00,0.00,0.00
734,18.206107,-28.221374,13.648855,0.261475,-0.944092,0.180664,0.00,0.00,0.00
735,18.931298,-31.160305,12.053435,0.278320,-0.925293,0.192627,0.00,0.00,0.00
736,18.992366,-35.709924,8.099237,0.276855,-0.957275,0.168213,0.00,0.00,0.00
737,18.206107,-43.335878,5.603053,0.231445,-0.962158,0.146240,0.00,0.00,0.00
738,17.267176,-52.526718,3.366412,0.164551,-0.945801,0.137451,0.00,0.00,0.00
739,15.404580,-59.923664,2.114504,0.129639,-0.914551,0.123535,0.00,0.00,0.00
740,13.091603,-69.320611,0.557252,0.085449,-0.881104,0.108643,0.00,0.00,0.00
741,10.923664,-77.824427,-0.404580,0.073730,-0.862061,0.103271,0.00,0.00,0.00
742,8.648855,-85.106870,-1.816794,0.074707,-0.840820,0.083252,0.00,0.00,0.00
743,7.473282,-91.038168,-2.564885,0.086182,-0.821777,0.099365,0.00,0.00,0.00
744,5.778626,-95.389313,-3.816794,0.101318,-0.796875,0.094971,0.00,0.00,0.00
745,5.152672,-98.625954,-4.007634,0.108398,-0.790039,0.088135,0.00,0.00,0.00
746,4.297710,-98.305344,-3.541985,0.121582,-0.786865,0.074951,0.00,0.00,0.00
747,3.832061,-99.648855,-2.755725,0.148682,-0.781982,0.055176,0.00,0.00,0.00
748,3.786260,-94.679389,-1.343511,0.190918,-0.776367,0.052490,0.00,0.00,0.00
749,4.129771,-89.442748,0.122137,0.225830,-0.773193,0.038086,0.00,0.00,0.00
750,4.290076,-83.633588,1.534351,0.260742,-0.780029,0.028320,0.00,0.00,0.00
751,4.725191,-78.877863,3.152672,0.250000,-0.796631,0.044678,0.00,0.00,0.00
752,5.389313,-75.832061,4.389313,0.231934,-0.807861,0.060303,0.00,0.00,0.00
753,6.587786,-74.267176,4.961832,0.224365,-0.829590,0.062988,0.00,0.00,0.00
754,8.381679,-72.793893,5.206107,0.210693,-0.844238,0.074707,0.00,0.00,0.00
755,10.656489,-71.954198,4.541985,0.190186,-0.859375,0.072998,0.00,0.00,0.00
756,12.748092,-72.297710,3.961832,0.181396,-0.863281,0.082031,0.00,0.00,0.00
757,15.190840,-73.954198,2.923664,0.170654,-0.860352,0.088867,0.00,0.00,0.00
758,17.442748,-76.213740,2.000000,0.150391,-0.858398,0.110596,0.00,0.00,0.00
759,18.587786,-79.984733,1.610687,0.126465,-0.858887,0.100830,0.00,0.00,0.00
760,19.137405,-85.244275,1.083969,0.114258,-0.870361,0.106445,0.00,0.00,0.00
761,18.854962,-91.244275,1.015267,0.082031,-0.872314,0.083984,0.00,0.00,0.00
762,18.038168,-97.748092,1.511450,0.070068,-0.885498,0.074951,0.00,0.00,0.00
763,17.076336,-101.114504,2.122137,0.063721,-0.899170,0.051514,0.00,0.00,0.00
764,16.061069,-104.068702,2.832061,0.080322,-0.901611,0.041992,0.00,0.00,0.00
765,14.312977,-107.786260,3.305344,0.105713,-0.898926,0.008789,0.00,0.00,0.00
766,12.396947,-110.648855,3.442748,0.132080,-0.896729,-0.023682,0.00,0.00,0.00
767,11.320611,-111.969466,4.022901,0.115967,-0.916748,-0.049805,0.00,0.00,0.00
768,10.290076,-112.320611,4.557252,0.087646,-0.937256,-0.040527,0.00,0.00,0.00
769,8.778626,-112.381679,5.145038,0.056885,-0.958008,-0.032471,0.00,0.00,0.00
770,7.244275,-112.984733,5.091603,0.052979,-0.975586,-0.018311,0.00,0.00,0.00
771,4.954198,-114.648855,4.473282,0.060547,-0.985596,-0.029053,0.00,0.00,0.00
772,3.137405,-115.221374,3.778626,0.076660,-0.999268,-0.023926,0.00,0.00,0.00
773,1.854962,-114.969466,3.137405,0.078369,-1.012207,-0.016357,0.00,0.00,0.00
774,0.328244,-113.152672,2.473282,0.089600,-1.028564,-0.002686,0.00,0.00,0.00
775,-0.885496,-108.931298,1.251908,0.094727,-1.037109,0.008789,0.00,0.00,0.00
776,-1.587786,-104.916031,0.343511,0.104736,-1.045166,0.029785,0.00,0.00,0.00
777,-2.404580,-99.732824,-1.114504,0.090332,-1.045898,0.041748,0.00,0.00,0.00
778,-3.129771,-100.007634,-2.687023,0.069824,-1.053467,0.041016,0.00,0.00,0.00
779,-3.091603,-98.664122,-4.343511,0.032959,-1.048828,0.031738,0.00,0.00,0.00
780,-3.137405,-97.198473,-6.625954,0.007324,-1.050049,0.053955,0.00,0.00,0.00
781,-2.801527,-99.870229,-8.488550,-0.010742,-1.050537,0.030029,0.00,0.00,0.00
782,-2.847328,-101.450382,-11.061069,-0.040283,-1.048584,0.043701,0.00,0.00,0.00
783,-2.809160,-100.992366,-13.641221,-0.054199,-1.051758,0.054443,0.00,0.00,0.00
784,-2.687023,-100.618321,-15.404580,-0.045166,-1.023682,0.089844,0.00,0.00,0.00
785,-3.145038,-100.664122,-17.053435,-0.024170,-1.002686,0.092041,0.00,0.00,0.00
786,-3.946565,-100.748092,-18.091603,0.004639,-0.994385,0.104980,0.00,0.00,0.00
787,-3.992366,-100.763359,-18.786260,0.020752,-0.994629,0.104248,0.00,0.00,0.00
788,-3.656489,-100.496183,-19.152672,0.027344,-1.002686,0.096924,0.00,0.00,0.00
789,-3.068702,-96.480916,-19.244275,0.025635,-1.028076,0.107178,0.00,0.00,0.00
790,-1.954198,-95.351145,-18.763359,0.011963,-1.039795,0.100586,0.00,0.00,0.00
791,-1.221374,-92.877863,-18.465649,0.008545,-1.048828,0.103027,0.00,0.00,0.00
792,-0.076336,-90.099237,-17.633588,-0.009277,-1.070801,0.094238,0.00,0.00,0.00
793,0.740458,-88.213740,-16.358779,-0.005371,-1.070312,0.098877,0.00,0.00,0.00
794,1.290076,-85.801527,-14.877863,0.022461,-1.062744,0.106445,0.00,0.00,0.00
795,1.832061,-82.381679,-13.267176,0.047119,-1.052002,0.114746,0.00,0.00,0.00
796,2.213740,-77.717557,-11.160305,0.074219,-1.025391,0.117920,0.00,0.00,0.00
797,2.824427,-72.862595,-8.786260,0.108154,-1.013428,0.126953,0.00,0.00,0.00
798,3.458015,-67.503817,-6.381679,0.120361,-0.999512,0.127441,0.00,0.00,0.00
799,4.297710,-61.740458,-4.076336,0.130859,-0.994141,0.138672,0.00,0.00,0.00
800,5.396947,-57.328244,-1.687023,0.125488,-0.994141,0.132324,0.00,0.00,0.00
801,6.297710,-54.618321,0.503817,0.119141,-0.988525,0.114990,0.00,0.00,0.00
802,7.229008,-53.167939,2.656489,0.089355,-0.996582,0.106689,0.00,0.00,0.00
803,8.595420,-54.267176,4.435115,0.078125,-0.999512,0.102539,0.00,0.00,0.00
804,10.206107,-57.404580,5.839695,0.054688,-0.985352,0.099121,0.00,0.00,0.00
805,11.198473,-62.061069,7.076336,0.030518,-0.986816,0.096924,0.00,0.00,0.00
806,12.198473,-67.564885,8.641221,0.011719,-0.990723,0.081299,0.00,0.00,0.00
807,13.099237,-72.519084,9.335878,-0.005127,-0.992676,0.078125,0.00,0.00,0.00
808,14.320611,-79.274809,10.625954,-0.021484,-0.983154,0.074951,0.00,0.00,0.00
809,14.648855,-86.000000,11.381679,-0.024170,-0.976318,0.072021,0.00,0.00,0.00
810,14.923664,-91.679389,12.259542,-0.009521,-0.970215,0.068115,0.00,0.00,0.00
811,14.610687,-96.877863,12.816794,0.005127,-0.970703,0.051514,0.00,0.00,0.00
812,14.213740,-100.770992,13.946565,0.027100,-0.961670,0.040527,0.00,0.00,0.00
813,13.916031,-106.160305,15.083969,0.050293,-0.969238,0.016602,0.00,0.00,0.00
814,13.366412,-109.175573,15.977099,0.069580,-0.977051,-0.000244,0.00,0.00,0.00
815,12.832061,-112.015267,17.000000,0.087891,-0.997803,-0.026367,0.00,0.00,0.00
816,12.862595,-114.396947,18.030534,0.092041,-1.018555,-0.040039,0.00,0.00,0.00
817,12.541985,-116.282443,19.038168,0.102539,-1.017822,-0.063477,0.00,0.00,0.00
818,12.702290,-118.526718,19.656489,0.116211,-1.010254,-0.091064,0.00,0.00,0.00
819,13.160305,-121.145038,20.351145,0.128174,-0.997070,-0.100098,0.00,0.00,0.00
820,13.732824,-123.351145,20.763359,0.126465,-0.989746,-0.110352,0.00,0.00,0.00
821,13.786260,-125.259542,20.450382,0.134277,-0.983154,-0.116455,0.00,0.00,0.00
822,15.068702,-126.648855,20.549618,0.125488,-0.984375,-0.105713,0.00,0.00,0.00
823,15.534351,-128.129771,20.343511,0.122070,-0.976807,-0.120605,0.00,0.00,0.00
824,16.137405,-129.374046,20.152672,0.121582,-0.979492,-0.137695,0.00,0.00,0.00
825,16.450382,-130.007634,19.931298,0.114502,-0.973633,-0.140625,0.00,0.00,0.00
826,16.664122,-129.442748,19.427481,0.112793,-0.971436,-0.140137,0.00,0.00,0.00
827,16.679389,-129.030534,18.893130,0.124512,-0.971680,-0.153809,0.00,0.00,0.00
828,16.893130,-129.893130,18.664122,0.144043,-0.974121,-0.175293,0.00,0.00,0.00
829,16.977099,-130.480916,18.572519,0.154541,-0.975098,-0.184082,0.00,0.00,0.00
830,17.244275,-130.740458,18.251908,0.170410,-0.959473,-0.201904,0.00,0.00,0.00
831,17.282443,-130.236641,18.137405,0.167480,-0.966309,-0.211182,0.00,0.00,0.00
832,17.076336,-129.740458,18.396947,0.170898,-0.963623,-0.217041,0.00,0.00,0.00
833,17.083969,-128.931298,18.908397,0.163574,-0.965088,-0.227051,0.00,0.00,0.00
834,16.503817,-128.389313,19.450382,0.166504,-0.953369,-0.229248,0.00,0.00,0.00
835,15.885496,-127.977099,19.786260,0.178711,-0.932129,-0.239258,0.00,0.00,0.00
836,15.137405,-128.526718,20.740458,0.192383,-0.901367,-0.245605,0.00,0.00,0.00
837,14.480916,-128.839695,22.312977,0.207275,-0.894775,-0.238770,0.00,0.00,0.00
838,13.931298,-124.900763,23.824427,0.223145,-0.882324,-0.254883,0.00,0.00,0.00
839,13.167939,-123.809160,25.931298,0.231934,-0.896973,-0.248291,0.00,0.00,0.00
840,12.435115,-119.961832,27.862595,0.249023,-0.903320,-0.252686,0.00,0.00,0.00
841,12.038168,-116.534351,29.572519,0.258057,-0.905518,-0.264160,0.00,0.00,0.00
842,11.572519,-112.000000,32.061069,0.280518,-0.905518,-0.282959,0.00,0.00,0.00
843,11.198473,-105.427481,35.274809,0.299316,-0.902588,-0.288818,0.00,0.00,0.00
844,11.175573,-99.419847,38.267176,0.311035,-0.903076,-0.284180,0.00,0.00,0.00
845,10.885496,-93.068702,41.198473,0.322998,-0.888428,-0.306641,0.00,0.00,0.00
846,10.610687,-86.419847,44.274809,0.320557,-0.883057,-0.302734,0.00,0.00,0.00
847,10.305344,-79.496183,47.137405,0.336426,-0.871338,-0.300781,0.00,0.00,0.00
848,10.236641,-71.900763,49.740458,0.336670,-0.851318,-0.298828,0.00,0.00,0.00
849,9.732824,-64.732824,51.870229,0.334961,-0.846680,-0.312500,0.00,0.00,0.00
850,8.961832,-59.427481,53.030534,0.319092,-0.833252,-0.315918,0.00,0.00,0.00
851,8.000000,-56.152672,53.862595,0.298584,-0.839355,-0.316895,0.00,0.00,0.00
852,7.511450,-55.076336,54.312977,0.293945,-0.842529,-0.331299,0.00,0.00,0.00
853,7.442748,-55.557252,54.503817,0.291748,-0.840820,-0.323242,0.00,0.00,0.00
854,7.396947,-55.755725,54.954198,0.295898,-0.850830,-0.328613,0.00,0.00,0.00
855,7.755725,-56.274809,54.824427,0.288818,-0.855957,-0.322510,0.00,0.00,0.00
856,6.595420,-56.893130,54.290076,0.286377,-0.843506,-0.326904,0.00,0.00,0.00
857,5.625954,-59.900763,53.099237,0.306396,-0.827881,-0.316162,0.00,0.00,0.00
858,5.022901,-63.755725,52.244275,0.334717,-0.832520,-0.324951,0.00,0.00,0.00
859,4.709924,-68.595420,51.366412,0.366699,-0.849121,-0.327148,0.00,0.00,0.00
860,4.618321,-70.931298,50.664122,0.381348,-0.872070,-0.316650,0.00,0.00,0.00
861,4.992366,-71.725191,50.267176,0.369141,-0.893555,-0.295654,0.00,0.00,0.00
862,5.076336,-71.748092,49.946565,0.359863,-0.886475,-0.283936,0.00,0.00,0.00
863,4.671756,-72.358779,49.526718,0.356201,-0.894531,-0.279541,0.00,0.00,0.00
864,4.381679,-73.404580,49.404580,0.350586,-0.887207,-0.276855,0.00,0.00,0.00
865,4.068702,-73.931298,49.893130,0.353760,-0.890137,-0.274902,0.00,0.00,0.00
866,3.847328,-73.435115,50.717557,0.359619,-0.891846,-0.284180,0.00,0.00,0.00
867,3.473282,-73.954198,51.167939,0.364502,-0.898193,-0.285889,0.00,0.00,0.00
868,2.816794,-73.183206,52.015267,0.366211,-0.894043,-0.280762,0.00,0.00,0.00
869,1.862595,-71.839695,52.496183,0.388184,-0.908447,-0.284912,0.00,0.00,0.00
870,1.053435,-71.145038,52.740458,0.398193,-0.918213,-0.294922,0.00,0.00,0.00
871,0.229008,-69.977099,53.427481,0.402344,-0.937012,-0.288818,0.00,0.00,0.00
872,-0.190840,-67.213740,54.129771,0.424805,-0.938477,-0.295410,0.00,0.00,0.00
873,-1.076336,-63.068702,54.770992,0.443848,-0.947510,-0.290283,0.00,0.00,0.00
874,-1.977099,-58.679389,55.198473,0.452148,-0.940918,-0.292969,0.00,0.00,0.00
875,-2.580153,-55.809160,55.534351,0.451172,-0.943848,-0.294434,0.00,0.00,0.00
876,-3.603053,-51.534351,56.045802,0.446777,-0.959473,-0.279541,0.00,0.00,0.00
877,-4.541985,-47.061069,56.297710,0.435303,-0.975830,-0.283691,0.00,0.00,0.00
878,-5.694656,-42.671756,56.274809,0.430176,-1.001465,-0.277832,0.00,0.00,0.00
879,-6.335878,-38.236641,55.816794,0.431641,-1.016602,-0.272705,0.00,0.00,0.00
880,-7.175573,-33.396947,55.694656,0.433838,-1.022461,-0.280273,0.00,0.00,0.00
881,-7.641221,-28.778626,55.557252,0.427002,-1.024414,-0.281250,0.00,0.00,0.00
882,-8.366412,-23.740458,55.114504,0.408936,-1.029541,-0.294434,0.00,0.00,0.00
883,-9.091603,-19.099237,54.603053,0.405762,-1.021729,-0.288574,0.00,0.00,0.00
884,-10.374046,-13.557252,54.244275,0.410889,-1.022705,-0.292480,0.00,0.00,0.00
885,-11.496183,-6.480916,53.923664,0.404053,-1.021729,-0.276367,0.00,0.00,0.00
886,-13.305344,0.801527,53.832061,0.421875,-1.033691,-0.259277,0.00,0.00,0.00
887,-14.908397,7.427481,53.015267,0.433838,-1.035889,-0.274658,0.00,0.00,0.00
888,-15.732824,14.748092,52.290076,0.433594,-1.037842,-0.266846,0.00,0.00,0.00
889,-16.045802,21.954198,51.916031,0.414551,-1.039307,-0.256348,0.00,0.00,0.00
890,-16.206107,29.816794,51.343511,0.398682,-1.024658,-0.237061,0.00,0.00,0.00
891,-17.045802,38.137405,51.282443,0.382080,-1.014893,-0.228271,0.00,0.00,0.00
892,-17.099237,44.442748,51.152672,0.368896,-1.009033,-0.213379,0.00,0.00,0.00
893,-17.664122,51.687023,50.885496,0.339111,-0.994873,-0.198486,0.00,0.00,0.00
894,-18.351145,58.145038,50.496183,0.323975,-0.984375,-0.186523,0.00,0.00,0.00
895,-19.595420,63.312977,49.702290,0.301758,-0.969238,-0.177002,0.00,0.00,0.00
896,-20.748092,67.549618,48.893130,0.280273,-0.968262,-0.172363,0.00,0.00,0.00
897,-21.190840,71.160305,48.740458,0.259033,-0.960693,-0.148193,0.00,0.00,0.00
898,-21.557252,74.717557,48.496183,0.237305,-0.962891,-0.141602,0.00,0.00,0.00
899,-21.282443,76.221374,47.740458,0.237793,-0.955566,-0.124268,0.00,0.00,0.00
900,-21.198473,76.030534,46.343511,0.214111,-0.961670,-0.108887,0.00,0.00,0.00
901,-21.183206,75.725191,44.832061,0.205811,-0.951416,-0.096924,0.00,0.00,0.00
902,-19.053435,74.045802,42.992366,0.173340,-0.953369,-0.069336,0.00,0.00,0.00
903,-18.824427,71.068702,41.534351,0.131348,-0.951660,-0.052002,0.00,0.00,0.00
904,-18.419847,66.740458,39.519084,0.118164,-0.931641,-0.029053,0.00,0.00,0.00
905,-18.358779,61.854962,37.824427,0.100342,-0.925537,-0.014404,0.00,0.00,0.00
906,-18.213740,56.656489,35.877863,0.094971,-0.921631,0.001953,0.00,0.00,0.00
907,-18.450382,50.488550,33.366412,0.077393,-0.920898,0.025391,0.00,0.00,0.00
908,-18.786260,43.427481,31.099237,0.067871,-0.914551,0.048096,0.00,0.00,0.00
909,-19.251908,37.404580,29.366412,0.076660,-0.921387,0.036133,0.00,0.00,0.00
910,-19.473282,29.870229,27.618321,0.083252,-0.908691,0.031006,0.00,0.00,0.00
911,-20.106870,21.412214,27.083969,0.069336,-0.935059,0.028564,0.00,0.00,0.00
912,-16.893130,9.984733,27.519084,0.005859,-0.994385,0.049316,0.00,0.00,0.00
913,-19.000000,0.366412,22.702290,0.060303,-0.924805,0.137451,0.00,0.00,0.00
914,-21.114504,-9.778626,16.473282,0.170898,-0.945801,0.111084,0.00,0.00,0.00
915,-20.122137,-18.167939,11.229008,0.214355,-0.944092,0.099121,0.00,0.00,0.00
916,-19.885496,-22.885496,5.358779,0.259277,-0.974121,0.104736,0.00,0.00,0.00
917,-18.580153,-28.236641,1.267176,0.322266,-1.005859,0.099854,0.00,0.00,0.00
918,-17.358779,-34.648855,-4.389313,0.347656,-1.047363,0.083496,0.00,0.00,0.00
919,-14.114504,-37.229008,-8.106870,0.214111,-1.100098,0.069336,0.00,0.00,0.00
920,-9.053435,-32.717557,-9.893130,-0.000244,-1.232422,0.102295,0.00,0.00,0.00
921,-6.297710,-26.206107,-10.580153,-0.205566,-1.361572,0.119629,0.00,0.00,0.00
922,-10.549618,-25.213740,-9.679389,-0.375977,-1.416260,0.106689,0.00,0.00,0.00
923,-20.435115,-22.587786,-7.809160,-0.446045,-1.433350,0.077148,0.00,0.00,0.00
924,-29.076336,-13.801527,-8.038168,-0.295410,-1.386230,0.083984,0.00,0.00,0.00
925,-34.748092,-7.580153,-8.427481,-0.004639,-1.257568,0.054688,0.00,0.00,0.00
926,-36.839695,-2.793893,-9.931298,0.166504,-1.127930,-0.000244,0.00,0.00,0.00
927,-35.564885,6.633588,-13.282443,0.291016,-0.948242,-0.099365,0.00,0.00,0.00
928,-31.877863,16.633588,-15.541985,0.282227,-0.835205,-0.171387,0.00,0.00,0.00
929,-28.770992,20.221374,-14.122137,0.125732,-0.823730,-0.225586,0.00,0.00,0.00
930,-27.938931,17.564885,-12.000000,-0.095947,-0.865479,-0.225586,0.00,0.00,0.00
931,-26.770992,13.572519,-11.633588,-0.215576,-0.898926,-0.243164,0.00,0.00,0.00
932,-28.923664,9.969466,-12.671756,-0.225098,-0.967529,-0.312256,0.00,0.00,0.00
933,-30.977099,-0.282443,-13.908397,-0.182373,-0.984375,-0.401611,0.00,0.00,0.00
934,-31.305344,-3.419847,-17.648855,-0.116211,-1.045166,-0.426758,0.00,0.00,0.00
935,-30.587786,-0.572519,-22.274809,0.043457,-1.098877,-0.397461,0.00,0.00,0.00
936,-28.641221,0.335878,-24.076336,0.073486,-1.082031,-0.368164,0.00,0.00,0.00
937,-26.687023,-1.221374,-25.061069,0.016846,-1.051758,-0.340088,0.00,0.00,0.00
938,-25.549618,-2.473282,-24.442748,-0.078857,-0.955078,-0.287598,0.00,0.00,0.00
939,-24.893130,-1.038168,-23.564885,-0.105225,-0.912842,-0.253418,0.00,0.00,0.00
940,-24.137405,-1.816794,-22.450382,-0.051514,-0.890625,-0.278809,0.00,0.00,0.00
941,-23.625954,-0.854962,-22.183206,0.014648,-0.916748,-0.279053,0.00,0.00,0.00
942,-22.496183,1.732824,-22.000000,0.083984,-0.965820,-0.267578,0.00,0.00,0.00
943,-22.076336,4.496183,-22.389313,0.130127,-1.021973,-0.247070,0.00,0.00,0.00
944,-20.488550,6.374046,-21.396947,0.138184,-1.056396,-0.236572,0.00,0.00,0.00
945,-19.938931,7.610687,-21.114504,0.124512,-1.059082,-0.205322,0.00,0.00,0.00
946,-20.320611,7.251908,-21.587786,0.128174,-1.062744,-0.190186,0.00,0.00,0.00
947,-19.519084,7.862595,-21.824427,0.131348,-1.054932,-0.177490,0.00,0.00,0.00
948,-19.190840,6.396947,-21.198473,0.090088,-1.040283,-0.175781,0.00,0.00,0.00
949,-19.541985,3.832061,-20.190840,0.021973,-0.997314,-0.176025,0.00,0.00,0.00
950,-20.541985,1.465649,-19.282443,-0.002441,-0.966553,-0.190186,0.00,0.00,0.00
951,-21.641221,-0.389313,-18.870229,0.029785,-0.965332,-0.199219,0.00,0.00,0.00
952,-21.641221,-0.938931,-18.473282,0.065430,-0.989746,-0.236816,0.00,0.00,0.00
953,-20.366412,-0.206107,-17.748092,0.064453,-0.996826,-0.277100,0.00,0.00,0.00
954,-18.969466,0.778626,-17.251908,0.036133,-0.999756,-0.274902,0.00,0.00,0.00
955,-18.282443,1.076336,-16.618321,0.022217,-0.971924,-0.277588,0.00,0.00,0.00
956,-17.541985,0.267176,-15.450382,0.008301,-0.961670,-0.284180,0.00,0.00,0.00
957,-17.183206,0.038168,-14.725191,0.020752,-0.950928,-0.293213,0.00,0.00,0.00
958,-16.229008,0.091603,-13.679389,0.040039,-0.958252,-0.292969,0.00,0.00,0.00
959,-15.213740,0.580153,-12.732824,0.061035,-0.961182,-0.289551,0.00,0.00,0.00
960,-14.580153,1.778626,-11.793893,0.086182,-0.983154,-0.283203,0.00,0.00,0.00
961,-13.648855,3.664122,-10.236641,0.099365,-0.992432,-0.274170,0.00,0.00,0.00
962,-12.381679,5.053435,-8.717557,0.125977,-1.001221,-0.266113,0.00,0.00,0.00
963,-12.221374,6.206107,-7.183206,0.113037,-0.990723,-0.238037,0.00,0.00,0.00
964,-12.076336,6.656489,-5.587786,0.098633,-0.993652,-0.209717,0.00,0.00,0.00
965,-11.839695,6.496183,-4.442748,0.089355,-0.988770,-0.198975,0.00,0.00,0.00
966,-11.908397,6.557252,-3.000000,0.084717,-0.989990,-0.208740,0.00,0.00,0.00
967,-12.091603,7.122137,-1.961832,0.082764,-0.986572,-0.217285,0.00,0.00,0.00
968,-11.923664,7.259542,-1.145038,0.091064,-0.984619,-0.217041,0.00,0.00,0.00
969,-11.847328,7.083969,-0.114504,0.101807,-0.979492,-0.216797,0.00,0.00,0.00
970,-11.206107,7.389313,1.015267,0.106201,-0.983887,-0.225098,0.00,0.00,0.00
971,-10.801527,7.809160,1.725191,0.092041,-0.985107,-0.207275,0.00,0.00,0.00
972,-10.572519,7.496183,2.190840,0.067871,-0.979980,-0.227539,0.00,0.00,0.00
973,-10.541985,6.961832,2.618321,0.028564,-0.971680,-0.229492,0.00,0.00,0.00
974,-10.206107,6.587786,2.374046,-0.004395,-0.967285,-0.249023,0.00,0.00,0.00
975,-9.992366,6.381679,1.687023,-0.017578,-0.965820,-0.247803,0.00,0.00,0.00
976,-9.992366,6.305344,0.923664,-0.039795,-0.954834,-0.249512,0.00,0.00,0.00
977,-9.977099,5.885496,0.076336,-0.055908,-0.952148,-0.252930,0.00,0.00,0.00
978,-10.068702,5.030534,-1.160305,-0.059570,-0.955078,-0.274658,0.00,0.00,0.00
979,-9.648855,4.213740,-2.244275,-0.055908,-0.952148,-0.275391,0.00,0.00,0.00
980,-9.587786,3.618321,-3.847328,-0.063232,-0.954590,-0.269043,0.00,0.00,0.00
981,-9.374046,2.038168,-4.419847,-0.084229,-0.941162,-0.251221,0.00,0.00,0.00
982,-9.404580,-0.488550,-5.709924,-0.109375,-0.947021,-0.240967,0.00,0.00,0.00
983,-10.045802,-2.488550,-7.595420,-0.100586,-0.942383,-0.240479,0.00,0.00,0.00
984,-10.175573,-4.152672,-9.511450,-0.092773,-0.942871,-0.245850,0.00,0.00,0.00
985,-10.450382,-5.282443,-10.770992,-0.076172,-0.940918,-0.236328,0.00,0.00,0.00
986,-10.862595,-6.290076,-12.030534,-0.081055,-0.947754,-0.233643,0.00,0.00,0.00
987,-11.603053,-7.419847,-13.465649,-0.075195,-0.943848,-0.223389,0.00,0.00,0.00
988,-11.801527,-9.022901,-15.122137,-0.066162,-0.947266,-0.219971,0.00,0.00,0.00
989,-12.213740,-9.221374,-16.511450,-0.053223,-0.944580,-0.229492,0.00,0.00,0.00
990,-13.053435,-9.519084,-17.824427,-0.038574,-0.947998,-0.217041,0.00,0.00,0.00
991,-13.366412,-10.030534,-18.816794,-0.009277,-0.959229,-0.209229,0.00,0.00,0.00
992,-14.290076,-9.908397,-20.061069,-0.002930,-0.947754,-0.206299,0.00,0.00,0.00
993,-15.282443,-11.931298,-19.809160,-0.025635,-0.941162,-0.204590,0.00,0.00,0.00
994,-15.404580,-11.717557,-20.969466,-0.027832,-0.939209,-0.205322,0.00,0.00,0.00
995,-17.213740,-13.229008,-21.969466,-0.032959,-0.955322,-0.228271,0.00,0.00,0.00
996,-16.320611,-11.335878,-24.648855,-0.011963,-0.944336,-0.244629,0.00,0.00,0.00
997,-17.969466,-11.916031,-24.923664,-0.029053,-0.948242,-0.229980,0.00,0.00,0.00
998,-17.854962,-12.442748,-26.015267,-0.018311,-0.947754,-0.230713,0.00,0.00,0.00
999,-18.076336,-11.267176,-27.618321,-0.010986,-0.956055,-0.244141,0.00,0.00,0.00
1000,-18.954198,-11.587786,-27.671756,-0.010010,-0.959961,-0.245361,0.00,0.00,0.00
1001,-17.847328,-10.122137,-29.419847,0.001221,-0.953125,-0.247314,0.00,0.00,0.00
1002,-19.366412,-11.122137,-29.129771,0.000977,-0.956787,-0.271484,0.00,0.00,0.00
1003,-18.473282,-10.045802,-30.801527,0.027832,-0.953125,-0.274414,0.00,0.00,0.00
1004,-20.312977,-10.961832,-30.465649,0.002686,-0.953857,-0.261963,0.00,0.00,0.00
1005,-20.122137,-11.969466,-30.900763,0.010986,-0.945557,-0.269531,0.00,0.00,0.00
1006,-19.755725,-11.793893,-32.236641,0.028564,-0.934814,-0.257080,0.00,0.00,0.00
1007,-21.526718,-12.725191,-31.961832,0.020020,-0.950928,-0.269043,0.00,0.00,0.00
1008,-21.389313,-11.732824,-32.557252,0.038818,-0.952148,-0.270752,0.00,0.00,0.00
1009,-21.412214,-10.030534,-33.549618,0.044189,-0.950195,-0.272705,0.00,0.00,0.00
1010,-21.145038,-8.015267,-33.450382,0.042480,-0.934814,-0.264404,0.00,0.00,0.00
1011,-21.587786,-7.282443,-33.190840,0.051514,-0.929688,-0.276611,0.00,0.00,0.00
1012,-22.015267,-5.847328,-33.900763,0.102295,-0.895508,-0.282959,0.00,0.00,0.00
1013,-22.236641,-6.519084,-32.732824,0.123535,-0.926025,-0.296143,0.00,0.00,0.00
1014,-21.167939,-5.954198,-32.320611,0.104736,-0.972656,-0.304199,0.00,0.00,0.00
1015,-20.618321,-5.793893,-32.488550,0.110352,-0.978516,-0.297852,0.00,0.00,0.00
1016,-20.931298,-4.717557,-32.053435,0.109131,-0.968750,-0.306641,0.00,0.00,0.00
1017,-17.366412,0.152672,-32.656489,0.143066,-0.961426,-0.340576,0.00,0.00,0.00
1018,-19.396947,0.488550,-30.534351,0.174072,-0.981201,-0.344238,0.00,0.00,0.00
1019,-18.541985,1.290076,-29.862595,0.205078,-1.003174,-0.306885,0.00,0.00,0.00
1020,-17.671756,2.770992,-28.259542,0.229736,-0.990723,-0.307373,0.00,0.00,0.00
1021,-17.778626,5.015267,-26.290076,0.220703,-0.987793,-0.290771,0.00,0.00,0.00
1022,-17.679389,6.519084,-24.954198,0.201660,-0.979980,-0.283447,0.00,0.00,0.00
1023,-17.404580,7.152672,-23.366412,0.168701,-0.967041,-0.266846,0.00,0.00,0.00
1024,-17.435115,6.877863,-22.664122,0.164307,-0.962646,-0.281982,0.00,0.00,0.00
1025,-16.961832,7.083969,-22.267176,0.155273,-0.972656,-0.280273,0.00,0.00,0.00
1026,-16.877863,8.076336,-23.160305,0.173096,-0.927734,-0.253906,0.00,0.00,0.00
1027,-18.122137,6.038168,-22.022901,0.139160,-0.990479,-0.276367,0.00,0.00,0.00
1028,-17.305344,5.854962,-22.137405,0.118652,-0.999512,-0.291992,0.00,0.00,0.00
1029,-16.847328,5.938931,-22.099237,0.116211,-0.984619,-0.294189,0.00,0.00,0.00
1030,-17.083969,6.091603,-22.374046,0.119873,-0.972900,-0.315674,0.00,0.00,0.00
1031,-16.656489,6.763359,-22.167939,0.135254,-0.958008,-0.314453,0.00,0.00,0.00
1032,-16.854962,6.763359,-21.564885,0.148193,-0.960693,-0.323730,0.00,0.00,0.00
1033,-16.862595,7.167939,-20.969466,0.156006,-0.943359,-0.320801,0.00,0.00,0.00
1034,-16.648855,7.671756,-20.435115,0.148682,-0.944824,-0.317871,0.00,0.00,0.00
1035,-16.725191,7.664122,-20.427481,0.147461,-0.945312,-0.323975,0.00,0.00,0.00
1036,-16.587786,7.374046,-20.106870,0.125000,-0.943115,-0.324951,0.00,0.00,0.00
1037,-16.809160,6.526718,-20.396947,0.115234,-0.950195,-0.314697,0.00,0.00,0.00
1038,-16.274809,5.549618,-21.160305,0.101318,-0.951904,-0.334961,0.00,0.00,0.00
1039,-16.328244,5.656489,-21.488550,0.120361,-0.955322,-0.358398,0.00,0.00,0.00
1040,-16.091603,6.000000,-21.633588,0.127197,-0.968506,-0.341797,0.00,0.00,0.00
1041,-16.175573,6.786260,-21.206107,0.144043,-0.968262,-0.345459,0.00,0.00,0.00
1042,-16.320611,7.549618,-20.564885,0.137207,-0.975098,-0.358398,0.00,0.00,0.00
1043,-15.702290,9.526718,-19.786260,0.124023,-0.977295,-0.348145,0.00,0.00,0.00
1044,-15.061069,11.480916,-19.763359,0.130127,-0.956787,-0.351807,0.00,0.00,0.00
1045,-15.221374,12.641221,-19.343511,0.128174,-0.950684,-0.336670,0.00,0.00,0.00
1046,-15.229008,9.267176,-16.923664,0.108154,-0.998047,-0.368408,0.00,0.00,0.00
1047,-14.709924,10.893130,-18.335878,0.118164,-0.983643,-0.367920,0.00,0.00,0.00
1048,-13.969466,11.099237,-17.458015,0.142090,-1.003906,-0.355713,0.00,0.00,0.00
1049,-13.122137,11.702290,-17.244275,0.133057,-1.027344,-0.364990,0.00,0.00,0.00
1050,-12.748092,11.854962,-18.183206,0.114258,-1.095703,-0.402832,0.00,0.00,0.00
1051,-10.068702,12.312977,-18.809160,0.067383,-1.178223,-0.409424,0.00,0.00,0.00
1052,-7.709924,11.763359,-21.274809,-0.006592,-1.268066,-0.451904,0.00,0.00,0.00
1053,-6.564885,13.732824,-23.549618,-0.056152,-1.299805,-0.434082,0.00,0.00,0.00
1054,-8.503817,18.740458,-25.854962,-0.038574,-1.296387,-0.365967,0.00,0.00,0.00
1055,-11.290076,22.572519,-26.954198,0.007812,-1.220703,-0.305908,0.00,0.00,0.00
1056,-14.251908,28.022901,-28.412214,0.030273,-1.136230,-0.249756,0.00,0.00,0.00
1057,-17.854962,32.320611,-30.618321,0.018066,-1.104004,-0.247314,0.00,0.00,0.00
1058,-19.832061,35.038168,-34.320611,-0.073730,-1.139648,-0.259033,0.00,0.00,0.00
1059,-20.366412,35.862595,-39.129771,-0.147217,-1.232178,-0.228271,0.00,0.00,0.00
1060,-22.137405,35.129771,-44.274809,-0.175293,-1.315430,-0.175781,0.00,0.00,0.00
1061,-25.763359,33.221374,-48.809160,-0.135742,-1.347656,-0.187256,0.00,0.00,0.00
1062,-28.511450,32.778626,-52.374046,-0.117188,-1.366699,-0.193604,0.00,0.00,0.00
1063,-30.877863,32.190840,-56.847328,-0.111328,-1.358643,-0.166016,0.00,0.00,0.00
1064,-33.229008,32.839695,-62.603053,-0.125244,-1.330811,-0.134277,0.00,0.00,0.00
1065,-35.183206,33.412214,-68.022901,-0.137695,-1.301514,-0.112549,0.00,0.00,0.00
1066,-37.419847,32.938931,-73.358779,-0.127197,-1.273682,-0.109131,0.00,0.00,0.00
1067,-39.412214,31.702290,-78.923664,-0.119385,-1.264648,-0.111084,0.00,0.00,0.00
1068,-41.022901,30.786260,-84.984733,-0.124756,-1.261475,-0.119873,0.00,0.00,0.00
1069,-41.992366,28.992366,-87.748092,-0.149170,-1.235840,-0.122559,0.00,0.00,0.00
1070,-43.961832,28.030534,-93.503817,-0.153564,-1.290771,-0.131592,0.00,0.00,0.00
1071,-44.984733,26.076336,-97.984733,-0.154541,-1.295898,-0.156006,0.00,0.00,0.00
1072,-47.610687,24.931298,-103.045802,-0.119385,-1.328369,-0.182129,0.00,0.00,0.00
1073,-50.267176,24.244275,-107.305344,-0.077148,-1.354492,-0.232666,0.00,0.00,0.00
1074,-52.893130,25.412214,-110.809160,-0.026611,-1.324219,-0.287354,0.00,0.00,0.00
1075,-55.656489,28.351145,-112.732824,0.008545,-1.274170,-0.319092,0.00,0.00,0.00
1076,-59.290076,31.503817,-114.038168,0.030762,-1.218506,-0.345703,0.00,0.00,0.00
1077,-63.198473,34.213740,-113.480916,0.038086,-1.174561,-0.381104,0.00,0.00,0.00
1078,-66.847328,36.694656,-113.007634,0.067383,-1.124023,-0.412354,0.00,0.00,0.00
1079,-69.396947,36.946565,-112.984733,0.110840,-1.081055,-0.427490,0.00,0.00,0.00
1080,-73.358779,37.503817,-113.061069,0.192871,-1.045166,-0.469238,0.00,0.00,0.00
1081,-76.198473,35.687023,-112.885496,0.245850,-1.073730,-0.517090,0.00,0.00,0.00
1082,-76.000000,36.152672,-112.549618,0.282227,-1.130859,-0.513916,0.00,0.00,0.00
1083,-74.297710,38.595420,-113.129771,0.320557,-1.168457,-0.463379,0.00,0.00,0.00
1084,-72.053435,41.908397,-111.587786,0.311279,-1.175049,-0.374512,0.00,0.00,0.00
1085,-70.129771,45.885496,-108.396947,0.272461,-1.158691,-0.324463,0.00,0.00,0.00
1086,-68.404580,52.961832,-103.832061,0.207520,-1.119385,-0.296387,0.00,0.00,0.00
1087,-67.236641,60.015267,-100.419847,0.241455,-1.075195,-0.268311,0.00,0.00,0.00
1088,-67.557252,64.282443,-96.091603,0.336670,-1.034180,-0.321045,0.00,0.00,0.00
1089,-64.511450,67.129771,-89.145038,0.257568,-1.051514,-0.297607,0.00,0.00,0.00
1090,-61.076336,73.748092,-82.236641,0.099121,-1.062012,-0.225830,0.00,0.00,0.00
1091,-59.656489,77.053435,-76.564885,0.063232,-1.031250,-0.186279,0.00,0.00,0.00
1092,-57.908397,78.160305,-72.236641,0.094971,-1.000000,-0.179199,0.00,0.00,0.00
1093,-56.160305,77.748092,-68.183206,0.107666,-0.972412,-0.183105,0.00,0.00,0.00
1094,-54.122137,76.091603,-64.519084,0.112549,-0.974609,-0.192871,0.00,0.00,0.00
1095,-52.061069,72.419847,-60.290076,0.092285,-0.953857,-0.185791,0.00,0.00,0.00
1096,-50.625954,68.358779,-57.465649,0.065186,-0.948730,-0.167236,0.00,0.00,0.00
1097,-49.259542,63.106870,-53.885496,0.031494,-0.916016,-0.149902,0.00,0.00,0.00
1098,-48.106870,57.343511,-49.824427,0.019775,-0.904053,-0.132812,0.00,0.00,0.00
1099,-47.267176,51.122137,-45.549618,0.014404,-0.872803,-0.129395,0.00,0.00,0.00
1100,-46.320611,45.671756,-41.175573,0.012451,-0.859619,-0.123291,0.00,0.00,0.00
1101,-45.358779,41.229008,-37.145038,0.034668,-0.844238,-0.121094,0.00,0.00,0.00
1102,-44.030534,37.496183,-32.870229,0.050781,-0.824951,-0.111816,0.00,0.00,0.00
1103,-42.213740,35.045802,-28.458015,0.079590,-0.805664,-0.093994,0.00,0.00,0.00
1104,-39.992366,31.824427,-22.793893,0.102539,-0.784912,-0.110107,0.00,0.00,0.00
1105,-37.152672,28.694656,-16.816794,0.127197,-0.776611,-0.096924,0.00,0.00,0.00
1106,-33.755725,26.297710,-11.328244,0.164551,-0.769287,-0.104980,0.00,0.00,0.00
1107,-29.816794,24.801527,-5.083969,0.175293,-0.744629,-0.105469,0.00,0.00,0.00
1108,-26.206107,24.076336,0.580153,0.168701,-0.724121,-0.095215,0.00,0.00,0.00
1109,-22.022901,22.419847,6.290076,0.174072,-0.708496,-0.097412,0.00,0.00,0.00
1110,-18.137405,20.198473,12.450382,0.180420,-0.688477,-0.085693,0.00,0.00,0.00
1111,-14.068702,19.251908,18.473282,0.184082,-0.666504,-0.084473,0.00,0.00,0.00
1112,-9.801527,18.862595,23.641221,0.195801,-0.664795,-0.082275,0.00,0.00,0.00
1113,-6.160305,19.022901,27.404580,0.193604,-0.663330,-0.091309,0.00,0.00,0.00
1114,-1.977099,19.793893,32.580153,0.185303,-0.671387,-0.088135,0.00,0.00,0.00
1115,2.236641,19.175573,37.610687,0.159668,-0.667236,-0.086914,0.00,0.00,0.00
1116,6.229008,16.984733,42.969466,0.136230,-0.658691,-0.098633,0.00,0.00,0.00
1117,10.137405,14.488550,48.328244,0.112305,-0.647461,-0.099609,0.00,0.00,0.00
1118,13.793893,11.916031,53.534351,0.110840,-0.639648,-0.098145,0.00,0.00,0.00
1119,17.832061,9.458015,58.145038,0.128662,-0.636963,-0.116699,0.00,0.00,0.00
1120,22.427481,6.877863,62.534351,0.134766,-0.640137,-0.111084,0.00,0.00,0.00
1121,26.442748,4.763359,66.297710,0.136963,-0.636963,-0.117676,0.00,0.00,0.00
1122,30.832061,1.717557,70.709924,0.129883,-0.652100,-0.118408,0.00,0.00,0.00
1123,35.381679,-1.183206,74.549618,0.124268,-0.668457,-0.130859,0.00,0.00,0.00
1124,39.786260,-3.381679,78.328244,0.120361,-0.683350,-0.129395,0.00,0.00,0.00
1125,44.435115,-5.633588,82.442748,0.138184,-0.694336,-0.125977,0.00,0.00,0.00
1126,49.206107,-6.389313,86.549618,0.151611,-0.695557,-0.128418,0.00,0.00,0.00
1127,54.038168,-7.732824,90.664122,0.168701,-0.695801,-0.133545,0.00,0.00,0.00
1128,58.473282,-9.053435,95.022901,0.184082,-0.699219,-0.108887,0.00,0.00,0.00
1129,63.755725,-11.755725,100.480916,0.165283,-0.703613,-0.128174,0.00,0.00,0.00
1130,66.328244,-12.015267,102.961832,0.171143,-0.710938,-0.133545,0.00,0.00,0.00
1131,71.412214,-13.496183,107.916031,0.166504,-0.719238,-0.139160,0.00,0.00,0.00
1132,76.152672,-15.251908,112.618321,0.161621,-0.724121,-0.155029,0.00,0.00,0.00
1133,81.206107,-16.687023,117.312977,0.173584,-0.728027,-0.172607,0.00,0.00,0.00
1134,86.488550,-18.404580,122.229008,0.188721,-0.741455,-0.194092,0.00,0.00,0.00
1135,91.725191,-19.099237,126.801527,0.191895,-0.750488,-0.216309,0.00,0.00,0.00
1136,96.473282,-18.702290,130.748092,0.208252,-0.758545,-0.209229,0.00,0.00,0.00
1137,99.045802,-14.534351,131.000000,0.256104,-0.804199,-0.216797,0.00,0.00,0.00
1138,102.770992,-12.335878,134.687023,0.271729,-0.781738,-0.211670,0.00,0.00,0.00
1139,105.076336,-10.984733,138.740458,0.234619,-0.764404,-0.213867,0.00,0.00,0.00
1140,107.099237,-9.641221,142.465649,0.227051,-0.773438,-0.212158,0.00,0.00,0.00
1141,109.061069,-9.458015,145.664122,0.229248,-0.798584,-0.208496,0.00,0.00,0.00
1142,110.625954,-10.679389,148.465649,0.238770,-0.823730,-0.239258,0.00,0.00,0.00
1143,112.129771,-13.832061,151.053435,0.222412,-0.853271,-0.257080,0.00,0.00,0.00
1144,113.709924,-19.595420,153.167939,0.197510,-0.894775,-0.276367,0.00,0.00,0.00
1145,115.687023,-27.396947,155.152672,0.156494,-0.934082,-0.291748,0.00,0.00,0.00
1146,117.198473,-35.206107,156.557252,0.128174,-0.988281,-0.309326,0.00,0.00,0.00
1147,118.267176,-41.000000,157.244275,0.126709,-1.021729,-0.291016,0.00,0.00,0.00
1148,119.832061,-48.076336,157.557252,0.125244,-1.062500,-0.292725,0.00,0.00,0.00
1149,121.030534,-54.839695,157.839695,0.125732,-1.086670,-0.290039,0.00,0.00,0.00
1150,121.541985,-61.519084,158.000000,0.108643,-1.105469,-0.284180,0.00,0.00,0.00
1151,121.809160,-68.389313,158.320611,0.107422,-1.118652,-0.283691,0.00,0.00,0.00
1152,122.450382,-75.664122,158.206107,0.110596,-1.137939,-0.286621,0.00,0.00,0.00
1153,123.137405,-82.656489,158.396947,0.115479,-1.174072,-0.296631,0.00,0.00,0.00
1154,123.847328,-89.694656,158.190840,0.099609,-1.188965,-0.303223,0.00,0.00,0.00
1155,123.946565,-96.366412,157.877863,0.077637,-1.209473,-0.296875,0.00,0.00,0.00
1156,124.419847,-102.694656,156.587786,0.055908,-1.218750,-0.285156,0.00,0.00,0.00
1157,122.709924,-112.534351,155.633588,0.016113,-1.190918,-0.295898,0.00,0.00,0.00
1158,119.580153,-121.519084,154.412214,-0.003418,-1.172363,-0.299805,0.00,0.00,0.00
1159,116.709924,-131.709924,152.770992,0.024414,-1.161377,-0.314697,0.00,0.00,0.00
1160,114.465649,-141.610687,151.091603,0.074219,-1.157227,-0.324951,0.00,0.00,0.00
1161,114.000000,-149.992366,149.534351,0.112061,-1.183350,-0.339355,0.00,0.00,0.00
1162,110.923664,-152.106870,148.267176,0.142334,-1.178711,-0.331543,0.00,0.00,0.00
1163,107.938931,-153.770992,147.061069,0.176758,-1.174561,-0.375977,0.00,0.00,0.00
1164,106.007634,-159.404580,145.236641,0.231201,-1.179688,-0.418213,0.00,0.00,0.00
1165,102.656489,-166.641221,141.984733,0.280762,-1.176025,-0.447998,0.00,0.00,0.00
1166,99.198473,-169.770992,138.908397,0.282715,-1.183105,-0.455078,0.00,0.00,0.00
1167,96.366412,-171.832061,135.801527,0.267334,-1.187500,-0.462402,0.00,0.00,0.00
1168,93.809160,-174.061069,133.061069,0.247314,-1.198975,-0.466064,0.00,0.00,0.00
1169,90.511450,-174.625954,130.381679,0.193604,-1.208496,-0.437988,0.00,0.00,0.00
1170,86.106870,-176.099237,126.870229,0.147217,-1.193604,-0.414307,0.00,0.00,0.00
1171,81.137405,-178.648855,123.541985,0.124268,-1.176514,-0.415283,0.00,0.00,0.00
1172,76.717557,-179.992366,120.824427,0.107178,-1.159668,-0.421143,0.00,0.00,0.00
1173,70.900763,-177.572519,117.282443,0.114990,-1.138184,-0.427002,0.00,0.00,0.00
1174,66.297710,-171.106870,113.870229,0.188232,-1.114746,-0.455566,0.00,0.00,0.00
1175,66.167939,-158.694656,111.389313,0.269775,-1.117676,-0.515625,0.00,0.00,0.00
1176,67.664122,-143.229008,107.709924,0.327148,-1.138184,-0.527588,0.00,0.00,0.00
1177,68.198473,-133.862595,102.458015,0.358398,-1.163818,-0.529053,0.00,0.00,0.00
1178,67.549618,-129.045802,96.274809,0.340820,-1.172852,-0.527588,0.00,0.00,0.00
1179,65.740458,-126.213740,89.198473,0.288330,-1.160400,-0.569092,0.00,0.00,0.00
1180,63.061069,-126.320611,81.961832,0.240479,-1.130859,-0.619629,0.00,0.00,0.00
1181,61.213740,-126.259542,76.618321,0.204346,-1.104248,-0.653320,0.00,0.00,0.00
1182,58.404580,-124.290076,70.305344,0.179443,-1.066162,-0.678955,0.00,0.00,0.00
1183,54.687023,-119.610687,64.740458,0.174561,-1.016846,-0.685547,0.00,0.00,0.00
1184,49.160305,-114.320611,59.580153,0.182861,-0.948730,-0.722168,0.00,0.00,0.00
1185,41.541985,-107.916031,53.839695,0.206299,-0.903564,-0.745605,0.00,0.00,0.00
1186,32.198473,-99.114504,48.687023,0.251465,-0.874512,-0.771973,0.00,0.00,0.00
1187,22.480916,-92.763359,42.488550,0.336182,-0.848389,-0.774658,0.00,0.00,0.00
1188,13.847328,-87.213740,35.870229,0.418701,-0.843506,-0.783203,0.00,0.00,0.00
1189,8.625954,-82.091603,30.175573,0.484863,-0.860107,-0.791992,0.00,0.00,0.00
1190,3.122137,-71.618321,22.213740,0.541016,-0.887207,-0.757324,0.00,0.00,0.00
1191,-1.068702,-57.259542,14.908397,0.545166,-0.893555,-0.721191,0.00,0.00,0.00
1192,-4.290076,-42.603053,7.832061,0.500244,-0.886230,-0.669189,0.00,0.00,0.00
1193,-7.725191,-28.992366,1.198473,0.455811,-0.869141,-0.618896,0.00,0.00,0.00
1194,-10.900763,-17.343511,-4.541985,0.382812,-0.845947,-0.606689,0.00,0.00,0.00
1195,-14.145038,-7.625954,-9.854962,0.307129,-0.804688,-0.565674,0.00,0.00,0.00
1196,-17.687023,-0.458015,-14.725191,0.263184,-0.788818,-0.578369,0.00,0.00,0.00
1197,-20.839695,4.679389,-19.534351,0.253662,-0.790039,-0.574951,0.00,0.00,0.00
1198,-23.870229,6.206107,-23.664122,0.237549,-0.800049,-0.576904,0.00,0.00,0.00
1199,-27.328244,4.908397,-29.740458,0.218750,-0.803955,-0.570557,0.00,0.00,0.00
1200,-29.954198,2.511450,-35.282443,0.199463,-0.850098,-0.565186,0.00,0.00,0.00
1201,-32.442748,6.229008,-39.129771,0.122803,-0.895508,-0.489502,0.00,0.00,0.00
1202,-37.786260,6.374046,-45.885496,0.156494,-0.834717,-0.449219,0.00,0.00,0.00
1203,-46.870229,0.099237,-50.114504,0.203369,-0.813965,-0.491455,0.00,0.00,0.00
1204,-48.557252,-0.091603,-52.183206,0.156738,-0.884521,-0.518799,0.00,0.00,0.00
1205,-40.297710,8.931298,-47.740458,-0.059570,-0.973145,-0.396973,0.00,0.00,0.00
1206,-24.702290,21.946565,-37.938931,-0.430908,-1.194336,-0.161133,0.00,0.00,0.00
1207,-3.251908,43.740458,-24.053435,-1.025879,-1.385986,0.261963,0.00,0.00,0.00
1208,11.328244,69.900763,-9.083969,-1.730713,-1.622559,0.889893,0.00,0.00,0.00
1209,-14.083969,64.656489,-4.198473,-1.958496,-1.660889,1.020020,0.00,0.00,0.00
1210,-50.374046,27.259542,-17.992366,-1.145508,-1.541504,0.385010,0.00,0.00,0.00
1211,-74.129771,-47.603053,-44.748092,-0.246338,-1.446045,-0.061035,0.00,0.00,0.00
1212,-85.274809,-107.114504,-57.969466,0.591797,-1.203125,-0.297363,0.00,0.00,0.00
1213,-86.206107,-88.816794,-71.274809,0.712158,-1.243408,-0.607178,0.00,0.00,0.00
1214,-69.160305,-56.801527,-81.931298,0.755371,-1.322266,-0.702393,0.00,0.00,0.00
1215,-55.709924,-56.351145,-86.809160,0.663086,-1.315430,-0.440918,0.00,0.00,0.00
1216,-48.526718,-24.129771,-76.832061,0.578369,-1.200439,-0.235840,0.00,0.00,0.00
1217,-51.320611,-27.038168,-68.068702,0.210693,-1.131836,-0.004395,0.00,0.00,0.00
1218,-54.885496,-25.740458,-61.068702,-0.050537,-0.996582,0.108887,0.00,0.00,0.00
1219,-55.297710,-26.679389,-57.198473,-0.147949,-0.936279,0.142090,0.00,0.00,0.00
1220,-55.832061,-34.946565,-53.480916,-0.072998,-0.900879,0.090332,0.00,0.00,0.00
1221,-55.664122,-39.160305,-48.496183,0.067627,-0.873291,-0.032227,0.00,0.00,0.00
1222,-56.465649,-52.213740,-44.625954,0.182129,-0.844727,-0.073975,0.00,0.00,0.00
1223,-55.671756,-51.488550,-42.404580,0.227783,-0.898193,-0.182129,0.00,0.00,0.00
1224,-55.603053,-49.312977,-39.992366,0.312012,-0.904053,-0.314453,0.00,0.00,0.00
1225,-54.351145,-44.427481,-36.488550,0.418457,-0.968750,-0.454346,0.00,0.00,0.00
1226,-52.496183,-31.793893,-32.572519,0.457275,-1.046387,-0.432373,0.00,0.00,0.00
1227,-47.221374,-22.938931,-30.893130,0.451660,-1.204590,-0.326904,0.00,0.00,0.00
1228,-42.770992,10.473282,-26.564885,0.457031,-1.243408,-0.287598,0.00,0.00,0.00
1229,-39.389313,17.580153,-24.290076,0.304688,-1.252441,-0.137451,0.00,0.00,0.00
1230,-38.755725,18.038168,-20.236641,0.096924,-1.125000,-0.071045,0.00,0.00,0.00
1231,-39.938931,15.893130,-18.305344,-0.027344,-1.008301,-0.044189,0.00,0.00,0.00
1232,-41.106870,14.503817,-17.580153,-0.024902,-0.955566,-0.095703,0.00,0.00,0.00
1233,-41.503817,13.488550,-16.183206,-0.001465,-0.916504,-0.169434,0.00,0.00,0.00
1234,-39.221374,15.938931,-14.679389,-0.018066,-0.920898,-0.238037,0.00,0.00,0.00
1235,-36.450382,16.038168,-13.221374,-0.060059,-0.931885,-0.248779,0.00,0.00,0.00
1236,-35.167939,12.969466,-12.022901,-0.091797,-0.932129,-0.234375,0.00,0.00,0.00
1237,-35.534351,5.083969,-10.908397,-0.136230,-0.947266,-0.166260,0.00,0.00,0.00
1238,-36.801527,-2.984733,-10.816794,-0.153320,-0.979492,-0.138428,0.00,0.00,0.00
1239,-37.145038,-8.557252,-11.496183,-0.152832,-1.022461,-0.138184,0.00,0.00,0.00
1240,-37.305344,-12.160305,-11.816794,-0.136475,-1.029541,-0.142334,0.00,0.00,0.00
1241,-37.213740,-15.541985,-12.763359,-0.118164,-1.033203,-0.137695,0.00,0.00,0.00
1242,-37.931298,-17.801527,-13.022901,-0.104736,-1.010742,-0.129395,0.00,0.00,0.00
1243,-38.267176,-18.290076,-13.068702,-0.094482,-0.992432,-0.159180,0.00,0.00,0.00
1244,-37.900763,-16.503817,-12.854962,-0.078857,-0.968018,-0.180420,0.00,0.00,0.00
1245,-36.992366,-13.305344,-12.137405,-0.026611,-0.966064,-0.207520,0.00,0.00,0.00
1246,-36.167939,-8.480916,-13.053435,0.018799,-0.995361,-0.235352,0.00,0.00,0.00
1247,-34.061069,-5.320611,-12.557252,0.045410,-0.997559,-0.225830,0.00,0.00,0.00
1248,-32.328244,-5.068702,-10.671756,0.033936,-0.992188,-0.219727,0.00,0.00,0.00
1249,-31.045802,-5.503817,-8.862595,0.022461,-0.987793,-0.209229,0.00,0.00,0.00
1250,-30.259542,-5.946565,-6.824427,0.002686,-0.991455,-0.209229,0.00,0.00,0.00
1251,-29.938931,-4.404580,-5.480916,-0.005371,-0.979492,-0.202148,0.00,0.00,0.00
1252,-29.015267,-2.496183,-4.351145,-0.020264,-0.970459,-0.194824,0.00,0.00,0.00
1253,-28.511450,-1.793893,-4.007634,-0.021484,-0.976074,-0.175537,0.00,0.00,0.00
1254,-27.832061,-2.824427,-3.778626,-0.029297,-0.979980,-0.163574,0.00,0.00,0.00
1255,-27.664122,-4.832061,-3.641221,-0.048828,-0.990234,-0.149414,0.00,0.00,0.00
1256,-27.992366,-7.030534,-3.923664,-0.059326,-1.003662,-0.167969,0.00,0.00,0.00
1257,-28.366412,-8.885496,-3.824427,-0.066895,-1.007812,-0.170654,0.00,0.00,0.00
1258,-27.809160,-9.603053,-4.137405,-0.068359,-1.023926,-0.175049,0.00,0.00,0.00
1259,-27.282443,-9.679389,-4.580153,-0.076904,-1.016602,-0.170166,0.00,0.00,0.00
1260,-27.305344,-9.106870,-5.236641,-0.081299,-1.001953,-0.157715,0.00,0.00,0.00
1261,-26.916031,-10.549618,-5.503817,-0.074951,-0.983398,-0.176270,0.00,0.00,0.00
1262,-26.717557,-11.816794,-5.763359,-0.072266,-0.964600,-0.186768,0.00,0.00,0.00
1263,-26.694656,-11.389313,-5.954198,-0.078369,-0.955566,-0.177734,0.00,0.00,0.00
1264,-26.244275,-10.145038,-6.358779,-0.072998,-0.976318,-0.197510,0.00,0.00,0.00
1265,-24.923664,-8.549618,-6.419847,-0.065918,-0.982666,-0.242920,0.00,0.00,0.00
1266,-23.908397,-7.198473,-6.694656,-0.060791,-0.987305,-0.252930,0.00,0.00,0.00
1267,-23.083969,-4.358779,-6.984733,-0.057617,-0.995605,-0.237549,0.00,0.00,0.00
1268,-21.931298,-1.343511,-7.305344,-0.074219,-0.984619,-0.230957,0.00,0.00,0.00
1269,-21.259542,1.870229,-8.068702,-0.082275,-0.962158,-0.218262,0.00,0.00,0.00
1270,-21.183206,3.442748,-8.343511,-0.072998,-0.943848,-0.205811,0.00,0.00,0.00
1271,-20.427481,4.076336,-8.801527,-0.067871,-0.932129,-0.197754,0.00,0.00,0.00
1272,-20.282443,4.274809,-9.610687,-0.081787,-0.933350,-0.176025,0.00,0.00,0.00
1273,-20.664122,3.587786,-10.465649,-0.112061,-0.935791,-0.181152,0.00,0.00,0.00
1274,-20.954198,2.938931,-11.488550,-0.128906,-0.943848,-0.177734,0.00,0.00,0.00
1275,-21.412214,1.015267,-13.183206,-0.145508,-0.958740,-0.175537,0.00,0.00,0.00
1276,-21.725191,-1.404580,-14.954198,-0.142578,-0.971680,-0.178711,0.00,0.00,0.00
1277,-22.000000,-3.450382,-16.671756,-0.138428,-0.969482,-0.191895,0.00,0.00,0.00
1278,-22.396947,-5.557252,-18.305344,-0.136230,-0.960938,-0.189941,0.00,0.00,0.00
1279,-22.038168,-6.732824,-19.648855,-0.119873,-0.953369,-0.203857,0.00,0.00,0.00
1280,-22.717557,-7.824427,-20.312977,-0.106934,-0.940186,-0.191650,0.00,0.00,0.00
1281,-22.992366,-7.786260,-21.068702,-0.075195,-0.941162,-0.205566,0.00,0.00,0.00
1282,-23.152672,-7.068702,-21.282443,-0.031982,-0.961182,-0.205811,0.00,0.00,0.00
1283,-22.862595,-6.190840,-21.290076,-0.011719,-0.968262,-0.218018,0.00,0.00,0.00
1284,-22.374046,-5.709924,-20.916031,-0.008301,-0.962646,-0.221924,0.00,0.00,0.00
1285,-21.916031,-4.893130,-20.564885,-0.021484,-0.976074,-0.234131,0.00,0.00,0.00
1286,-21.175573,-3.854962,-20.366412,-0.023193,-0.968750,-0.244629,0.00,0.00,0.00
1287,-20.748092,-3.297710,-20.076336,-0.021484,-0.978027,-0.248779,0.00,0.00,0.00
1288,-20.053435,-2.343511,-19.923664,-0.012451,-0.979248,-0.246582,0.00,0.00,0.00
1289,-19.328244,-0.450382,-19.740458,-0.008545,-0.975586,-0.251221,0.00,0.00,0.00
1290,-18.717557,0.664122,-19.480916,-0.011475,-0.962646,-0.252197,0.00,0.00,0.00
1291,-17.908397,1.290076,-19.190840,-0.015137,-0.968506,-0.243408,0.00,0.00,0.00
1292,-17.442748,1.725191,-18.969466,-0.020996,-0.959717,-0.236328,0.00,0.00,0.00
1293,-17.671756,1.984733,-19.190840,-0.015381,-0.968506,-0.250000,0.00,0.00,0.00
1294,-17.412214,1.320611,-18.732824,-0.014160,-0.976318,-0.261230,0.00,0.00,0.00
1295,-15.732824,2.557252,-19.526718,-0.006836,-0.979736,-0.254639,0.00,0.00,0.00
1296,-16.312977,1.618321,-18.770992,-0.027344,-0.995361,-0.242432,0.00,0.00,0.00
1297,-14.106870,2.938931,-20.251908,-0.006836,-0.995361,-0.247070,0.00,0.00,0.00
1298,-15.839695,1.175573,-19.290076,-0.027832,-0.999023,-0.250000,0.00,0.00,0.00
1299,-15.022901,1.129771,-19.671756,-0.004395,-0.992188,-0.243164,0.00,0.00,0.00
1300,-14.068702,4.740458,-21.137405,0.025879,-0.930664,-0.240723,0.00,0.00,0.00
1301,-15.580153,4.038168,-19.633588,0.010986,-0.964844,-0.223389,0.00,0.00,0.00
1302,-14.625954,4.580153,-19.824427,-0.003418,-0.990723,-0.199951,0.00,0.00,0.00
1303,-14.977099,5.061069,-20.526718,0.007080,-0.965820,-0.197510,0.00,0.00,0.00
1304,-13.694656,9.000000,-23.045802,0.040527,-0.939697,-0.195068,0.00,0.00,0.00
1305,-17.343511,6.656489,-22.053435,-0.042236,-0.979248,-0.196533,0.00,0.00,0.00
1306,-14.473282,7.435115,-24.549618,-0.052490,-0.985107,-0.192627,0.00,0.00,0.00
1307,-16.030534,8.404580,-26.992366,-0.062256,-0.974609,-0.232178,0.00,0.00,0.00
1308,-16.671756,7.267176,-29.595420,-0.081543,-0.976807,-0.266357,0.00,0.00,0.00
1309,-15.603053,7.709924,-32.351145,-0.078857,-0.974121,-0.273438,0.00,0.00,0.00
1310,-14.664122,8.435115,-35.282443,-0.081055,-0.976807,-0.308105,0.00,0.00,0.00
1311,-14.053435,9.335878,-38.152672,-0.099365,-0.986328,-0.309326,0.00,0.00,0.00
1312,-12.885496,11.541985,-40.603053,-0.110840,-0.973877,-0.319824,0.00,0.00,0.00
1313,-11.274809,15.748092,-44.511450,-0.126953,-0.978760,-0.379395,0.00,0.00,0.00
1314,-8.442748,19.419847,-49.122137,-0.140869,-0.980957,-0.398926,0.00,0.00,0.00
1315,-5.793893,23.328244,-53.519084,-0.160889,-0.975342,-0.374023,0.00,0.00,0.00
1316,-5.000000,26.068702,-58.603053,-0.187988,-0.958984,-0.332031,0.00,0.00,0.00
1317,-3.877863,28.038168,-61.954198,-0.224609,-0.955078,-0.353516,0.00,0.00,0.00
1318,-3.595420,31.381679,-67.106870,-0.268555,-0.951172,-0.337891,0.00,0.00,0.00
1319,-4.435115,34.954198,-72.221374,-0.295654,-0.932617,-0.294678,0.00,0.00,0.00
1320,-6.900763,39.450382,-77.160305,-0.294189,-0.939941,-0.201904,0.00,0.00,0.00
1321,-11.221374,43.061069,-81.786260,-0.260010,-0.995361,-0.087402,0.00,0.00,0.00
1322,-14.091603,42.129771,-86.389313,-0.168701,-1.026855,-0.015381,0.00,0.00,0.00
1323,-17.221374,38.198473,-87.358779,-0.097168,-1.039307,-0.005127,0.00,0.00,0.00
1324,-20.328244,34.351145,-91.152672,-0.049561,-1.054199,-0.024902,0.00,0.00,0.00
1325,-21.748092,29.687023,-93.709924,-0.037842,-1.067627,-0.052734,0.00,0.00,0.00
1326,-22.480916,22.312977,-96.458015,-0.071533,-1.102539,-0.070801,0.00,0.00,0.00
1327,-24.328244,16.419847,-99.366412,-0.089355,-1.138428,-0.099365,0.00,0.00,0.00
1328,-26.786260,12.022901,-101.564885,-0.070312,-1.162598,-0.116455,0.00,0.00,0.00
1329,-28.343511,8.755725,-103.603053,-0.011963,-1.208008,-0.153076,0.00,0.00,0.00
1330,-28.633588,4.442748,-104.748092,0.052246,-1.264160,-0.187012,0.00,0.00,0.00
1331,-27.511450,1.412214,-104.412214,0.102295,-1.303711,-0.213379,0.00,0.00,0.00
1332,-26.793893,0.404580,-104.015267,0.145264,-1.333252,-0.215332,0.00,0.00,0.00
1333,-25.244275,-1.198473,-101.717557,0.136719,-1.369873,-0.242188,0.00,0.00,0.00
1334,-25.374046,0.450382,-102.389313,0.149414,-1.388428,-0.249756,0.00,0.00,0.00
1335,-22.618321,0.923664,-98.366412,0.115723,-1.392334,-0.251709,0.00,0.00,0.00
1336,-21.190840,3.763359,-97.832061,0.048828,-1.388428,-0.204346,0.00,0.00,0.00
1337,-21.763359,4.480916,-98.541985,0.075928,-1.393799,-0.149902,0.00,0.00,0.00
1338,-20.648855,1.335878,-97.931298,0.109131,-1.385986,-0.094482,0.00,0.00,0.00
1339,-19.816794,-2.450382,-98.145038,0.123047,-1.334717,-0.062256,0.00,0.00,0.00
1340,-18.190840,-5.519084,-99.282443,0.149414,-1.279785,-0.030518,0.00,0.00,0.00
1341,-16.938931,-10.015267,-100.038168,0.164795,-1.243164,-0.003906,0.00,0.00,0.00
1342,-15.717557,-14.305344,-100.679389,0.162354,-1.215332,0.004883,0.00,0.00,0.00
1343,-13.885496,-20.557252,-101.274809,0.161621,-1.193848,0.028320,0.00,0.00,0.00
1344,-11.755725,-27.656489,-101.625954,0.164062,-1.165283,0.049316,0.00,0.00,0.00
1345,-10.320611,-38.038168,-101.801527,0.162598,-1.143311,0.044678,0.00,0.00,0.00
1346,-7.893130,-48.358779,-101.687023,0.113037,-1.118408,0.048096,0.00,0.00,0.00
1347,-4.809160,-56.931298,-101.183206,0.073486,-1.102539,0.064453,0.00,0.00,0.00
1348,-1.251908,-64.610687,-100.251908,0.039551,-1.071533,0.091309,0.00,0.00,0.00
1349,1.893130,-71.603053,-98.809160,0.013428,-1.040771,0.104004,0.00,0.00,0.00
1350,4.641221,-77.488550,-97.442748,0.012939,-1.008301,0.111084,0.00,0.00,0.00
1351,7.167939,-81.862595,-95.732824,0.005127,-0.985107,0.103271,0.00,0.00,0.00
1352,10.335878,-86.931298,-92.671756,-0.011963,-0.975586,0.100830,0.00,0.00,0.00
1353,14.038168,-90.793893,-88.969466,-0.021729,-0.973633,0.093994,0.00,0.00,0.00
1354,17.221374,-92.595420,-88.480916,0.054688,-0.963379,0.098877,0.00,0.00,0.00
1355,20.679389,-95.229008,-84.778626,0.140869,-0.965820,0.072021,0.00,0.00,0.00
1356,24.328244,-95.419847,-79.305344,0.121826,-0.959473,0.046875,0.00,0.00,0.00
1357,28.603053,-93.152672,-73.755725,0.061768,-0.935303,0.040527,0.00,0.00,0.00
1358,32.251908,-90.267176,-68.427481,0.015137,-0.913086,0.053467,0.00,0.00,0.00
1359,35.526718,-88.038168,-63.610687,0.018066,-0.900391,0.068115,0.00,0.00,0.00
1360,38.702290,-85.328244,-58.458015,0.027100,-0.889893,0.065186,0.00,0.00,0.00
1361,41.526718,-82.587786,-53.175573,0.017334,-0.864990,0.056641,0.00,0.00,0.00
1362,43.816794,-80.244275,-48.038168,0.018555,-0.847412,0.042725,0.00,0.00,0.00
1363,46.152672,-78.847328,-42.854962,-0.000732,-0.829346,0.019775,0.00,0.00,0.00
1364,48.290076,-77.877863,-38.312977,0.005859,-0.819580,0.006348,0.00,0.00,0.00
1365,50.816794,-77.610687,-33.427481,0.005371,-0.821777,-0.007812,0.00,0.00,0.00
1366,52.908397,-77.374046,-29.198473,-0.001953,-0.816162,-0.026855,0.00,0.00,0.00
1367,55.396947,-76.984733,-24.709924,-0.004395,-0.813965,-0.037598,0.00,0.00,0.00
1368,57.694656,-77.832061,-21.145038,-0.001709,-0.807861,-0.048584,0.00,0.00,0.00
1369,60.053435,-79.847328,-16.251908,-0.016113,-0.819824,-0.057373,0.00,0.00,0.00
1370,62.595420,-81.519084,-12.076336,-0.014893,-0.820557,-0.069824,0.00,0.00,0.00
1371,64.984733,-82.961832,-7.465649,-0.017822,-0.823242,-0.071777,0.00,0.00,0.00
1372,67.419847,-83.992366,-3.442748,-0.006592,-0.833740,-0.079346,0.00,0.00,0.00
1373,70.045802,-85.114504,0.396947,0.002930,-0.844482,-0.083740,0.00,0.00,0.00
1374,72.694656,-85.549618,3.900763,0.007812,-0.853027,-0.106201,0.00,0.00,0.00
1375,74.854962,-85.526718,7.381679,0.023438,-0.864502,-0.113037,0.00,0.00,0.00
1376,76.687023,-85.931298,10.083969,0.038818,-0.875488,-0.129639,0.00,0.00,0.00
1377,78.572519,-86.664122,13.282443,0.048828,-0.890137,-0.144287,0.00,0.00,0.00
1378,80.816794,-87.251908,16.328244,0.055420,-0.902832,-0.155029,0.00,0.00,0.00
1379,82.381679,-87.595420,19.312977,0.070557,-0.921143,-0.167480,0.00,0.00,0.00
1380,84.419847,-87.778626,21.671756,0.081543,-0.933838,-0.176514,0.00,0.00,0.00
1381,85.992366,-88.213740,23.625954,0.079590,-0.943848,-0.176758,0.00,0.00,0.00
1382,87.175573,-89.335878,25.786260,0.090576,-0.963867,-0.206299,0.00,0.00,0.00
1383,88.519084,-91.450382,27.740458,0.079346,-0.979736,-0.212646,0.00,0.00,0.00
1384,89.396947,-93.541985,29.473282,0.066895,-1.003662,-0.227783,0.00,0.00,0.00
1385,90.152672,-95.587786,30.748092,0.061279,-1.016602,-0.223633,0.00,0.00,0.00
1386,90.816794,-100.083969,32.145038,0.048340,-1.024658,-0.237061,0.00,0.00,0.00
1387,91.480916,-101.526718,32.977099,0.027832,-1.028564,-0.246826,0.00,0.00,0.00
1388,91.969466,-106.480916,33.664122,0.003418,-1.020752,-0.254883,0.00,0.00,0.00
1389,92.022901,-111.473282,34.183206,-0.011475,-1.008789,-0.241699,0.00,0.00,0.00
1390,91.679389,-116.335878,34.396947,-0.013428,-1.004883,-0.256836,0.00,0.00,0.00
1391,91.519084,-121.648855,34.396947,-0.019531,-1.015869,-0.252930,0.00,0.00,0.00
1392,91.000000,-127.129771,34.473282,-0.006104,-1.031006,-0.267334,0.00,0.00,0.00
1393,90.641221,-131.816794,33.862595,0.003906,-1.051758,-0.281006,0.00,0.00,0.00
1394,90.992366,-137.022901,33.404580,0.012939,-1.076904,-0.289795,0.00,0.00,0.00
1395,91.419847,-141.549618,32.480916,0.035400,-1.101562,-0.291504,0.00,0.00,0.00
1396,91.694656,-145.519084,31.801527,0.052490,-1.114014,-0.310547,0.00,0.00,0.00
1397,92.198473,-149.335878,30.312977,0.071777,-1.116455,-0.328613,0.00,0.00,0.00
1398,92.946565,-154.152672,28.198473,0.071289,-1.111084,-0.349121,0.00,0.00,0.00
1399,93.977099,-158.511450,25.923664,0.051025,-1.098877,-0.365234,0.00,0.00,0.00
1400,93.175573,-162.030534,22.763359,0.025879,-1.072998,-0.379395,0.00,0.00,0.00
1401,92.038168,-168.022901,20.099237,0.019287,-1.046631,-0.393555,0.00,0.00,0.00
1402,91.847328,-172.885496,18.167939,0.009521,-1.043945,-0.430908,0.00,0.00,0.00
1403,90.053435,-178.931298,15.236641,-0.005859,-1.020264,-0.452637,0.00,0.00,0.00
1404,86.938931,-185.320611,11.725191,-0.011475,-0.991943,-0.480957,0.00,0.00,0.00
1405,83.267176,-192.045802,8.083969,0.011475,-0.964844,-0.508301,0.00,0.00,0.00
1406,80.122137,-199.526718,4.633588,0.060303,-0.946533,-0.529297,0.00,0.00,0.00
1407,77.671756,-207.198473,0.946565,0.091553,-0.938721,-0.567383,0.00,0.00,0.00
1408,75.709924,-212.557252,-2.427481,0.115479,-0.929443,-0.576660,0.00,0.00,0.00
1409,73.564885,-215.557252,-5.656489,0.142822,-0.930908,-0.564209,0.00,0.00,0.00
1410,72.152672,-218.824427,-8.122137,0.164551,-0.935303,-0.570557,0.00,0.00,0.00
1411,69.816794,-221.351145,-10.221374,0.180176,-0.921631,-0.573730,0.00,0.00,0.00
1412,68.145038,-223.725191,-11.603053,0.192871,-0.915771,-0.576416,0.00,0.00,0.00
1413,67.412214,-226.038168,-12.251908,0.189697,-0.903809,-0.592285,0.00,0.00,0.00
1414,66.366412,-228.633588,-12.725191,0.166748,-0.898438,-0.605713,0.00,0.00,0.00
1415,64.694656,-231.458015,-13.244275,0.167480,-0.890869,-0.595215,0.00,0.00,0.00
1416,63.358779,-234.137405,-13.412214,0.177002,-0.888184,-0.601074,0.00,0.00,0.00
1417,62.748092,-236.183206,-13.000000,0.197510,-0.892822,-0.610596,0.00,0.00,0.00
1418,61.847328,-237.496183,-13.190840,0.189941,-0.892822,-0.605713,0.00,0.00,0.00
1419,61.053435,-238.091603,-13.969466,0.192871,-0.888672,-0.607910,0.00,0.00,0.00
1420,59.358779,-238.534351,-14.908397,0.205811,-0.881836,-0.591797,0.00,0.00,0.00
1421,57.076336,-238.458015,-15.748092,0.216797,-0.880371,-0.588623,0.00,0.00,0.00
1422,54.038168,-237.641221,-17.091603,0.231689,-0.891602,-0.579590,0.00,0.00,0.00
1423,51.183206,-236.549618,-18.267176,0.243408,-0.882568,-0.591797,0.00,0.00,0.00
1424,48.061069,-234.839695,-19.435115,0.256348,-0.876221,-0.598389,0.00,0.00,0.00
1425,45.305344,-230.977099,-20.625954,0.271240,-0.868652,-0.602783,0.00,0.00,0.00
1426,41.549618,-226.312977,-21.083969,0.286377,-0.861084,-0.614014,0.00,0.00,0.00
1427,38.740458,-221.923664,-21.564885,0.309814,-0.847900,-0.616699,0.00,0.00,0.00
1428,35.091603,-216.396947,-21.503817,0.324707,-0.842773,-0.623779,0.00,0.00,0.00
1429,31.557252,-209.099237,-21.366412,0.351074,-0.842529,-0.614258,0.00,0.00,0.00
1430,27.816794,-201.335878,-20.748092,0.366455,-0.860352,-0.607910,0.00,0.00,0.00
1431,24.480916,-190.816794,-20.229008,0.396240,-0.875488,-0.595703,0.00,0.00,0.00
1432,21.702290,-179.053435,-19.740458,0.410645,-0.876953,-0.597900,0.00,0.00,0.00
1433,19.671756,-165.442748,-18.664122,0.422607,-0.855225,-0.571045,0.00,0.00,0.00
1434,17.190840,-150.916031,-17.854962,0.445312,-0.822510,-0.563965,0.00,0.00,0.00
1435,14.687023,-137.145038,-17.183206,0.446045,-0.798584,-0.558594,0.00,0.00,0.00
1436,12.877863,-126.358779,-17.000000,0.460449,-0.786377,-0.555176,0.00,0.00,0.00
1437,10.770992,-114.954198,-16.083969,0.453613,-0.778809,-0.563721,0.00,0.00,0.00
1438,9.114504,-104.458015,-15.129771,0.444824,-0.785156,-0.558594,0.00,0.00,0.00
1439,7.106870,-92.969466,-14.022901,0.441895,-0.794678,-0.549805,0.00,0.00,0.00
1440,5.740458,-81.679389,-13.083969,0.439453,-0.833984,-0.546631,0.00,0.00,0.00
1441,4.870229,-71.389313,-11.526718,0.446045,-0.854248,-0.546387,0.00,0.00,0.00
1442,4.687023,-60.923664,-10.496183,0.462891,-0.856689,-0.535889,0.00,0.00,0.00
1443,4.748092,-49.053435,-11.572519,0.554199,-0.852783,-0.495850,0.00,0.00,0.00
1444,4.251908,-41.488550,-11.854962,0.595947,-0.840332,-0.497559,0.00,0.00,0.00
1445,2.931298,-32.648855,-11.801527,0.568848,-0.815430,-0.512207,0.00,0.00,0.00
1446,0.450382,-25.702290,-10.229008,0.467041,-0.781006,-0.516602,0.00,0.00,0.00
1447,-3.442748,-20.297710,-8.442748,0.347412,-0.741943,-0.470947,0.00,0.00,0.00
1448,-8.244275,-17.083969,-6.465649,0.320557,-0.700684,-0.482910,0.00,0.00,0.00
1449,-12.526718,-14.389313,-4.488550,0.336182,-0.715820,-0.513916,0.00,0.00,0.00
1450,-16.709924,-10.984733,-2.732824,0.371338,-0.731934,-0.581543,0.00,0.00,0.00
1451,-21.267176,-11.877863,-1.343511,0.384277,-0.750977,-0.657715,0.00,0.00,0.00
1452,-25.534351,-13.625954,0.625954,0.324707,-0.759277,-0.717529,0.00,0.00,0.00
1453,-28.541985,-11.839695,3.374046,0.224609,-0.776611,-0.731689,0.00,0.00,0.00
1454,-32.435115,-8.694656,6.274809,0.112305,-0.789551,-0.728027,0.00,0.00,0.00
1455,-36.122137,-8.648855,8.984733,0.071289,-0.804199,-0.784912,0.00,0.00,0.00
1456,-38.175573,-7.984733,12.053435,0.057373,-0.815674,-0.831787,0.00,0.00,0.00
1457,-38.190840,-1.366412,16.870229,0.021729,-0.833252,-0.777588,0.00,0.00,0.00
1458,-37.557252,10.007634,21.541985,0.013184,-0.873047,-0.656006,0.00,0.00,0.00
1459,-36.877863,16.389313,25.480916,0.072998,-0.886963,-0.517578,0.00,0.00,0.00
1460,-36.358779,19.320611,28.893130,0.146973,-0.889160,-0.438477,0.00,0.00,0.00
1461,-34.534351,23.198473,31.122137,0.188232,-0.895020,-0.434570,0.00,0.00,0.00
1462,-31.122137,27.610687,32.938931,0.215332,-0.899414,-0.449951,0.00,0.00,0.00
1463,-28.190840,31.312977,34.931298,0.253418,-0.928955,-0.447510,0.00,0.00,0.00
1464,-28.656489,35.732824,36.992366,0.283936,-0.964355,-0.388428,0.00,0.00,0.00
1465,-24.206107,35.763359,39.679389,0.292725,-0.956543,-0.338623,0.00,0.00,0.00
1466,-25.587786,36.427481,43.251908,0.268799,-0.988525,-0.303711,0.00,0.00,0.00
1467,-24.541985,34.351145,45.244275,0.252686,-1.025879,-0.176270,0.00,0.00,0.00
1468,-24.526718,28.305344,45.809160,0.246826,-1.022461,-0.032227,0.00,0.00,0.00
1469,-23.763359,20.175573,44.358779,0.255371,-1.064209,0.101074,0.00,0.00,0.00
1470,-21.572519,13.496183,42.832061,0.275635,-1.093262,0.212646,0.00,0.00,0.00
1471,-17.381679,1.740458,39.480916,0.284424,-1.149414,0.385498,0.00,0.00,0.00
1472,-13.061069,-14.923664,34.114504,0.291016,-1.219727,0.588379,0.00,0.00,0.00
1473,-14.435115,-40.022901,26.297710,0.234131,-1.172852,0.528564,0.00,0.00,0.00
1474,-14.893130,-57.885496,21.160305,0.126953,-1.143066,0.371582,0.00,0.00,0.00
1475,-16.229008,-58.679389,20.625954,0.052002,-1.117432,0.194580,0.00,0.00,0.00
1476,-20.519084,-82.946565,19.152672,-0.070801,-1.041504,0.143555,0.00,0.00,0.00
1477,-23.251908,-90.229008,17.755725,-0.130127,-1.114746,-0.062744,0.00,0.00,0.00
1478,-24.938931,-87.213740,16.633588,-0.138916,-1.130615,-0.224121,0.00,0.00,0.00
1479,-26.106870,-79.122137,15.290076,-0.093018,-1.164062,-0.319824,0.00,0.00,0.00
1480,-26.557252,-72.053435,13.709924,-0.010742,-1.264404,-0.378174,0.00,0.00,0.00
1481,-26.404580,-61.740458,14.595420,0.028320,-1.266357,-0.423096,0.00,0.00,0.00
1482,-26.435115,-47.358779,14.938931,0.124023,-1.277344,-0.438232,0.00,0.00,0.00
1483,-24.893130,-22.000000,16.183206,0.163086,-1.193604,-0.425293,0.00,0.00,0.00
1484,-23.969466,-18.450382,15.526718,0.188232,-1.086670,-0.309326,0.00,0.00,0.00
1485,-21.648855,-13.908397,16.015267,0.154541,-0.970947,-0.326904,0.00,0.00,0.00
1486,-19.160305,-11.961832,15.587786,0.087891,-0.918945,-0.312988,0.00,0.00,0.00
1487,-18.083969,-12.000000,15.320611,0.094482,-0.906494,-0.312988,0.00,0.00,0.00
1488,-16.549618,-14.564885,14.900763,0.114990,-0.910645,-0.310303,0.00,0.00,0.00
1489,-15.908397,-18.839695,15.366412,0.118652,-0.919922,-0.302734,0.00,0.00,0.00
1490,-14.732824,-20.442748,15.610687,0.077881,-0.932617,-0.276611,0.00,0.00,0.00
1491,-14.458015,-21.053435,15.389313,0.039307,-0.945801,-0.256348,0.00,0.00,0.00
1492,-13.809160,-23.290076,14.206107,0.043945,-0.962402,-0.274170,0.00,0.00,0.00
1493,-12.633588,-27.534351,13.076336,0.058838,-0.977051,-0.283936,0.00,0.00,0.00
1494,-11.404580,-30.725191,12.267176,0.091797,-0.977783,-0.285645,0.00,0.00,0.00
1495,-10.809160,-32.847328,12.206107,0.114014,-0.990967,-0.270020,0.00,0.00,0.00
1496,-10.320611,-33.160305,12.381679,0.135254,-0.988770,-0.262207,0.00,0.00,0.00
1497,-10.129771,-31.679389,13.091603,0.162109,-0.991455,-0.264893,0.00,0.00,0.00
1498,-9.717557,-29.587786,14.152672,0.178467,-0.970703,-0.277588,0.00,0.00,0.00
1499,-8.969466,-26.335878,15.450382,0.188232,-0.960938,-0.272461,0.00,0.00,0.00
1500,-8.206107,-22.786260,16.916031,0.195312,-0.961426,-0.271729,0.00,0.00,0.00
1501,-7.748092,-20.053435,18.770992,0.210938,-0.959717,-0.260498,0.00,0.00,0.00
1502,-7.832061,-17.427481,20.442748,0.219482,-0.957031,-0.235840,0.00,0.00,0.00
1503,-7.786260,-15.648855,22.351145,0.227051,-0.962646,-0.206543,0.00,0.00,0.00
1504,-7.893130,-14.274809,23.541985,0.213623,-0.962158,-0.179688,0.00,0.00,0.00
1505,-7.992366,-12.412214,24.748092,0.196289,-0.966553,-0.166992,0.00,0.00,0.00
1506,-8.435115,-10.404580,25.343511,0.158691,-0.964844,-0.147461,0.00,0.00,0.00
1507,-8.946565,-10.633588,25.000000,0.118896,-0.965088,-0.152344,0.00,0.00,0.00
1508,-9.053435,-12.366412,24.610687,0.081055,-0.960938,-0.182373,0.00,0.00,0.00
1509,-8.961832,-13.687023,23.694656,0.051025,-0.968506,-0.223877,0.00,0.00,0.00
1510,-8.961832,-15.167939,22.564885,0.027100,-0.971191,-0.235107,0.00,0.00,0.00
1511,-8.511450,-16.320611,21.595420,0.010742,-0.961426,-0.270752,0.00,0.00,0.00
