Packet number,Gyroscope X (deg/s),Gyroscope Y (deg/s),Gyroscope Z (deg/s),Accelerometer X (g),Accelerometer Y (g),Accelerometer Z (g),Magnetometer X (G),Magnetometer Y (G),Magnetometer Z (G)
1,0.007634,-0.160305,-0.221374,-0.267578,-0.551270,0.784424,0.00,0.00,0.00
2,0.091603,-0.229008,-0.190840,-0.271484,-0.551270,0.782959,0.00,0.00,0.00
3,0.106870,-0.396947,-0.114504,-0.266113,-0.550049,0.772949,0.00,0.00,0.00
4,0.190840,-0.335878,-0.152672,-0.265381,-0.546875,0.774414,0.00,0.00,0.00
5,-0.038168,-0.450382,-0.450382,-0.265137,-0.548340,0.772705,0.00,0.00,0.00
6,0.106870,-0.419847,-0.366412,-0.263672,-0.546875,0.777100,0.00,0.00,0.00
7,0.061069,-0.328244,-0.290076,-0.271973,-0.549805,0.774170,0.00,0.00,0.00
8,0.145038,-0.389313,-0.282443,-0.270264,-0.541504,0.784668,0.00,0.00,0.00
9,0.183206,-0.366412,-0.251908,-0.258301,-0.549316,0.776611,0.00,0.00,0.00
10,0.183206,-0.404580,-0.282443,-0.262451,-0.545166,0.774658,0.00,0.00,0.00
11,0.259542,-0.351145,-0.381679,-0.267090,-0.552002,0.780518,0.00,0.00,0.00
12,0.000000,-0.335878,-0.267176,-0.261963,-0.553711,0.783203,0.00,0.00,0.00
13,0.160305,-0.366412,-0.236641,-0.263428,-0.550781,0.782471,0.00,0.00,0.00
14,0.236641,-0.458015,-0.282443,-0.269043,-0.548828,0.789062,0.00,0.00,0.00
15,0.183206,-0.229008,-0.320611,-0.267090,-0.549316,0.773193,0.00,0.00,0.00
16,0.137405,-0.480916,-0.328244,-0.261230,-0.551758,0.775146,0.00,0.00,0.00
17,0.244275,-0.297710,-0.229008,-0.272949,-0.545654,0.775391,0.00,0.00,0.00
18,0.099237,-0.229008,-0.358779,-0.262939,-0.547607,0.787109,0.00,0.00,0.00
19,0.122137,-0.251908,-0.213740,-0.268311,-0.553467,0.785889,0.00,0.00,0.00
20,0.129771,-0.190840,-0.274809,-0.264404,-0.552246,0.773193,0.00,0.00,0.00
21,0.038168,-0.267176,-0.251908,-0.263672,-0.549805,0.779053,0.00,0.00,0.00
22,-0.038168,-0.267176,-0.251908,-0.267090,-0.551758,0.781494,0.00,0.00,0.00
23,0.083969,-0.213740,-0.175573,-0.265625,-0.546387,0.781982,0.00,0.00,0.00
24,-0.083969,-0.297710,-0.160305,-0.263672,-0.550781,0.776611,0.00,0.00,0.00
25,0.129771,-0.305344,-0.114504,-0.265869,-0.546387,0.774658,0.00,0.00,0.00
26,0.015267,-0.221374,-0.167939,-0.258789,-0.549316,0.773682,0.00,0.00,0.00
27,0.152672,-0.366412,-0.152672,-0.271729,-0.551025,0.783936,0.00,0.00,0.00
28,0.083969,-0.190840,-0.129771,-0.267334,-0.553711,0.775635,0.00,0.00,0.00
29,0.038168,-0.198473,-0.114504,-0.269775,-0.549072,0.784180,0.00,0.00,0.00
30,0.022901,-0.099237,-0.290076,-0.266846,-0.551758,0.772949,0.00,0.00,0.00
31,-0.038168,-0.259542,-0.030534,-0.266357,-0.553955,0.776855,0.00,0.00,0.00
32,0.160305,-0.381679,-0.145038,-0.261963,-0.545654,0.779541,0.00,0.00,0.00
33,0.190840,-0.259542,-0.267176,-0.266846,-0.545898,0.773438,0.00,0.00,0.00
34,0.091603,-0.290076,-0.213740,-0.264160,-0.545166,0.778809,0.00,0.00,0.00
35,0.106870,-0.396947,-0.183206,-0.267090,-0.546143,0.775146,0.00,0.00,0.00
36,-0.068702,-0.343511,-0.083969,-0.267090,-0.550293,0.776367,0.00,0.00,0.00
37,0.106870,-0.312977,-0.122137,-0.268311,-0.546631,0.773682,0.00,0.00,0.00
38,0.145038,-0.343511,-0.091603,-0.272461,-0.540527,0.775879,0.00,0.00,0.00
39,0.022901,-0.221374,-0.251908,-0.267578,-0.548340,0.777588,0.00,0.00,0.00
40,-0.083969,-0.328244,-0.167939,-0.268799,-0.547363,0.779053,0.00,0.00,0.00
41,-0.129771,-0.297710,-0.267176,-0.265381,-0.548340,0.783447,0.00,0.00,0.00
42,0.030534,-0.061069,0.091603,-0.261719,-0.545898,0.778076,0.00,0.00,0.00
43,-0.007634,-0.282443,-0.167939,-0.264893,-0.547363,0.784668,0.00,0.00,0.00
44,0.007634,-0.091603,-0.244275,-0.258545,-0.541016,0.779053,0.00,0.00,0.00
45,-0.175573,-0.076336,-0.030534,-0.267090,-0.549072,0.775635,0.00,0.00,0.00
46,0.022901,-0.076336,-0.083969,-0.262451,-0.545654,0.779541,0.00,0.00,0.00
47,0.000000,-0.221374,-0.007634,-0.268799,-0.552734,0.776367,0.00,0.00,0.00
48,-0.145038,-0.106870,-0.213740,-0.263184,-0.551270,0.778320,0.00,0.00,0.00
49,0.030534,-0.221374,-0.137405,-0.267090,-0.550049,0.770996,0.00,0.00,0.00
50,0.038168,-0.122137,-0.076336,-0.260986,-0.546387,0.776123,0.00,0.00,0.00
51,-0.068702,-0.129771,-0.022901,-0.265137,-0.545410,0.785400,0.00,0.00,0.00
52,-0.007634,-0.152672,-0.114504,-0.259766,-0.554688,0.786621,0.00,0.00,0.00
53,-0.007634,-0.145038,-0.068702,-0.264648,-0.546875,0.779541,0.00,0.00,0.00
54,-0.061069,-0.236641,-0.190840,-0.268066,-0.546387,0.778564,0.00,0.00,0.00
55,-0.007634,-0.076336,-0.099237,-0.274658,-0.545898,0.773438,0.00,0.00,0.00
56,0.038168,-0.190840,-0.129771,-0.266113,-0.547852,0.775391,0.00,0.00,0.00
57,-0.229008,-0.152672,-0.190840,-0.266113,-0.546143,0.782959,0.00,0.00,0.00
58,-0.045802,-0.106870,-0.045802,-0.267578,-0.553467,0.783691,0.00,0.00,0.00
59,0.053435,-0.175573,-0.297710,-0.263672,-0.545166,0.790771,0.00,0.00,0.00
60,-0.061069,-0.175573,-0.106870,-0.263672,-0.552979,0.774902,0.00,0.00,0.00
61,0.106870,-0.229008,-0.114504,-0.265869,-0.543213,0.789307,0.00,0.00,0.00
62,0.076336,-0.106870,-0.167939,-0.265869,-0.545410,0.774170,0.00,0.00,0.00
63,-0.099237,-0.213740,-0.251908,-0.269775,-0.543213,0.777100,0.00,0.00,0.00
64,-0.022901,-0.320611,-0.122137,-0.262207,-0.546875,0.778320,0.00,0.00,0.00
65,0.061069,-0.351145,-0.198473,-0.268555,-0.539551,0.782715,0.00,0.00,0.00
66,0.030534,-0.198473,-0.389313,-0.263184,-0.548584,0.781006,0.00,0.00,0.00
67,-0.083969,-0.244275,-0.175573,-0.256592,-0.541992,0.771729,0.00,0.00,0.00
68,0.030534,-0.190840,-0.259542,-0.260498,-0.547607,0.772949,0.00,0.00,0.00
69,-0.083969,-0.229008,-0.183206,-0.261963,-0.549316,0.778809,0.00,0.00,0.00
70,0.000000,-0.244275,-0.091603,-0.258057,-0.547607,0.779541,0.00,0.00,0.00
71,-0.015267,-0.274809,-0.083969,-0.269043,-0.544189,0.781738,0.00,0.00,0.00
72,0.038168,-0.229008,-0.160305,-0.265381,-0.552490,0.781250,0.00,0.00,0.00
73,-0.061069,-0.297710,-0.190840,-0.263672,-0.548340,0.781738,0.00,0.00,0.00
74,-0.045802,-0.045802,-0.244275,-0.264648,-0.553467,0.777588,0.00,0.00,0.00
75,0.045802,-0.290076,-0.213740,-0.261230,-0.545410,0.785645,0.00,0.00,0.00
76,0.007634,-0.251908,-0.122137,-0.264893,-0.550293,0.777100,0.00,0.00,0.00
77,0.007634,-0.229008,-0.259542,-0.266357,-0.547607,0.779541,0.00,0.00,0.00
78,-0.061069,-0.251908,-0.175573,-0.269043,-0.542725,0.778564,0.00,0.00,0.00
79,0.038168,-0.358779,-0.183206,-0.268799,-0.549561,0.774414,0.00,0.00,0.00
80,0.114504,-0.351145,-0.099237,-0.256592,-0.546875,0.781982,0.00,0.00,0.00
81,0.076336,-0.229008,-0.190840,-0.269043,-0.546875,0.778320,0.00,0.00,0.00
82,0.114504,-0.366412,-0.290076,-0.260498,-0.546143,0.781494,0.00,0.00,0.00
83,0.122137,-0.374046,-0.229008,-0.269287,-0.542725,0.778320,0.00,0.00,0.00
84,0.137405,-0.442748,-0.083969,-0.263916,-0.545166,0.770752,0.00,0.00,0.00
85,0.114504,-0.374046,-0.404580,-0.266113,-0.544189,0.780273,0.00,0.00,0.00
86,0.381679,-0.290076,-0.282443,-0.262939,-0.547852,0.781250,0.00,0.00,0.00
87,0.152672,-0.282443,-0.374046,-0.260986,-0.549072,0.775879,0.00,0.00,0.00
88,0.137405,-0.480916,-0.190840,-0.265625,-0.553223,0.775879,0.00,0.00,0.00
89,0.083969,-0.229008,-0.106870,-0.259277,-0.548584,0.770752,0.00,0.00,0.00
90,0.114504,-0.343511,-0.106870,-0.257568,-0.547363,0.782471,0.00,0.00,0.00
91,0.183206,-0.358779,-0.297710,-0.264160,-0.549805,0.780762,0.00,0.00,0.00
92,0.183206,-0.473282,-0.183206,-0.262939,-0.547852,0.783203,0.00,0.00,0.00
93,0.129771,-0.427481,-0.145038,-0.260010,-0.545654,0.785889,0.00,0.00,0.00
94,0.137405,-0.389313,-0.175573,-0.263428,-0.547363,0.777344,0.00,0.00,0.00
95,0.091603,-0.419847,-0.312977,-0.267578,-0.547607,0.777832,0.00,0.00,0.00
96,0.114504,-0.374046,-0.312977,-0.261230,-0.548828,0.776367,0.00,0.00,0.00
97,0.114504,-0.290076,-0.221374,-0.264404,-0.548584,0.767334,0.00,0.00,0.00
98,0.129771,-0.343511,-0.167939,-0.258789,-0.542480,0.776367,0.00,0.00,0.00
99,0.068702,-0.351145,-0.366412,-0.260742,-0.544678,0.787842,0.00,0.00,0.00
100,0.251908,-0.244275,-0.183206,-0.261719,-0.545410,0.783691,0.00,0.00,0.00
101,0.061069,-0.297710,-0.190840,-0.270996,-0.549316,0.781982,0.00,0.00,0.00
102,0.274809,-0.442748,-0.366412,-0.259277,-0.545410,0.781494,0.00,0.00,0.00
103,0.129771,-0.351145,-0.297710,-0.262207,-0.550293,0.774170,0.00,0.00,0.00
104,0.198473,-0.412214,-0.160305,-0.263184,-0.550049,0.773682,0.00,0.00,0.00
105,0.152672,-0.297710,-0.366412,-0.262939,-0.545654,0.772217,0.00,0.00,0.00
106,-0.038168,-0.267176,-0.198473,-0.261230,-0.550293,0.780762,0.00,0.00,0.00
107,0.129771,-0.175573,-0.091603,-0.257568,-0.548340,0.778320,0.00,0.00,0.00
108,-0.007634,-0.229008,-0.259542,-0.259033,-0.549072,0.783691,0.00,0.00,0.00
109,-0.038168,0.007634,-0.251908,-0.263184,-0.542969,0.781006,0.00,0.00,0.00
110,-0.007634,-0.076336,-0.251908,-0.266113,-0.550049,0.776855,0.00,0.00,0.00
111,0.015267,-0.076336,-0.244275,-0.264648,-0.552002,0.774902,0.00,0.00,0.00
112,-0.053435,-0.137405,-0.259542,-0.262451,-0.548828,0.774658,0.00,0.00,0.00
113,0.015267,-0.007634,-0.244275,-0.260254,-0.542725,0.789307,0.00,0.00,0.00
114,-0.030534,-0.160305,-0.122137,-0.262451,-0.545166,0.783936,0.00,0.00,0.00
115,-0.068702,0.030534,-0.290076,-0.259033,-0.550781,0.776123,0.00,0.00,0.00
116,-0.106870,-0.152672,-0.129771,-0.269531,-0.545166,0.782227,0.00,0.00,0.00
117,-0.160305,-0.206107,-0.038168,-0.261230,-0.544678,0.781982,0.00,0.00,0.00
118,0.045802,0.053435,-0.221374,-0.270020,-0.550537,0.773926,0.00,0.00,0.00
119,-0.091603,0.190840,-0.045802,-0.262451,-0.542725,0.780029,0.00,0.00,0.00
120,-0.167939,-0.068702,-0.160305,-0.267822,-0.545898,0.772949,0.00,0.00,0.00
121,-0.152672,-0.061069,-0.229008,-0.257812,-0.544922,0.781006,0.00,0.00,0.00
122,0.053435,0.038168,-0.137405,-0.265625,-0.549561,0.777832,0.00,0.00,0.00
123,-0.122137,0.083969,-0.114504,-0.267578,-0.547363,0.779785,0.00,0.00,0.00
124,-0.175573,0.114504,-0.083969,-0.262451,-0.549316,0.777100,0.00,0.00,0.00
125,-0.076336,0.015267,-0.083969,-0.265869,-0.547119,0.781982,0.00,0.00,0.00
126,-0.198473,0.190840,0.038168,-0.261719,-0.550537,0.780518,0.00,0.00,0.00
127,-0.091603,0.083969,0.083969,-0.259277,-0.547363,0.774170,0.00,0.00,0.00
128,-0.198473,0.175573,0.007634,-0.260010,-0.549316,0.774902,0.00,0.00,0.00
129,-0.244275,0.122137,-0.045802,-0.259277,-0.547119,0.780762,0.00,0.00,0.00
130,-0.167939,0.206107,0.076336,-0.264648,-0.547363,0.788330,0.00,0.00,0.00
131,-0.122137,0.145038,-0.145038,-0.263428,-0.547363,0.781494,0.00,0.00,0.00
132,-0.206107,0.206107,0.000000,-0.262451,-0.544189,0.777588,0.00,0.00,0.00
133,-0.145038,0.099237,0.053435,-0.262939,-0.548340,0.782471,0.00,0.00,0.00
134,-0.129771,0.305344,0.061069,-0.259766,-0.545410,0.775391,0.00,0.00,0.00
135,-0.305344,0.167939,0.129771,-0.257812,-0.550049,0.789551,0.00,0.00,0.00
136,-0.221374,0.083969,-0.030534,-0.265625,-0.541504,0.790039,0.00,0.00,0.00
137,-0.030534,0.236641,-0.053435,-0.263672,-0.545654,0.779297,0.00,0.00,0.00
138,-0.221374,0.099237,-0.038168,-0.262939,-0.549561,0.776123,0.00,0.00,0.00
139,-0.183206,0.175573,-0.045802,-0.260254,-0.543945,0.777832,0.00,0.00,0.00
140,-0.137405,0.152672,-0.106870,-0.261475,-0.551758,0.770752,0.00,0.00,0.00
141,-0.206107,0.206107,-0.122137,-0.266113,-0.547852,0.785156,0.00,0.00,0.00
143,-0.045802,-0.022901,-0.122137,-0.267822,-0.554932,0.774170,0.00,0.00,0.00
144,-0.137405,0.053435,-0.091603,-0.270752,-0.555664,0.767822,0.00,0.00,0.00
145,-0.236641,-0.083969,0.053435,-0.268799,-0.549805,0.770996,0.00,0.00,0.00
146,-0.091603,0.068702,0.190840,-0.269043,-0.554443,0.767822,0.00,0.00,0.00
147,-0.183206,0.221374,-0.061069,-0.273682,-0.557129,0.765381,0.00,0.00,0.00
148,-0.221374,0.145038,0.076336,-0.276367,-0.557129,0.755371,0.00,0.00,0.00
149,-0.251908,0.152672,-0.030534,-0.275635,-0.557617,0.769531,0.00,0.00,0.00
150,-0.351145,-0.022901,-0.083969,-0.269775,-0.556396,0.773193,0.00,0.00,0.00
151,-0.137405,0.068702,-0.083969,-0.270752,-0.562012,0.776855,0.00,0.00,0.00
152,0.030534,0.206107,-0.213740,-0.269287,-0.553467,0.766357,0.00,0.00,0.00
153,-0.068702,0.129771,-0.007634,-0.273193,-0.557129,0.769043,0.00,0.00,0.00
154,-0.152672,0.213740,0.030534,-0.267334,-0.554199,0.762451,0.00,0.00,0.00
155,-0.251908,0.297710,-0.083969,-0.273193,-0.554443,0.769287,0.00,0.00,0.00
156,-0.206107,0.290076,0.083969,-0.275391,-0.553711,0.765625,0.00,0.00,0.00
157,-0.206107,0.351145,0.091603,-0.274170,-0.558105,0.771240,0.00,0.00,0.00
158,-0.145038,0.267176,0.137405,-0.278809,-0.557129,0.771729,0.00,0.00,0.00
159,-0.114504,0.221374,-0.190840,-0.268799,-0.555664,0.770996,0.00,0.00,0.00
160,-0.190840,0.175573,-0.038168,-0.274902,-0.556641,0.758789,0.00,0.00,0.00
161,-0.251908,0.015267,-0.053435,-0.271729,-0.560303,0.760742,0.00,0.00,0.00
162,-0.213740,0.068702,-0.152672,-0.275391,-0.557861,0.761475,0.00,0.00,0.00
163,0.015267,0.053435,-0.221374,-0.274902,-0.556641,0.768066,0.00,0.00,0.00
164,-0.068702,0.267176,-0.122137,-0.270996,-0.552979,0.768066,0.00,0.00,0.00
165,0.022901,0.183206,-0.251908,-0.280029,-0.555420,0.764404,0.00,0.00,0.00
166,-0.061069,0.106870,-0.099237,-0.272705,-0.558350,0.760498,0.00,0.00,0.00
167,-0.137405,0.206107,-0.076336,-0.270264,-0.556885,0.771729,0.00,0.00,0.00
168,-0.183206,0.068702,-0.152672,-0.270020,-0.555908,0.762939,0.00,0.00,0.00
169,-0.167939,0.152672,-0.183206,-0.271729,-0.558838,0.764160,0.00,0.00,0.00
170,-0.007634,0.221374,-0.251908,-0.269775,-0.556641,0.756592,0.00,0.00,0.00
171,-0.145038,-0.045802,-0.221374,-0.275391,-0.559814,0.767578,0.00,0.00,0.00
172,-0.091603,0.106870,-0.038168,-0.273193,-0.556641,0.769775,0.00,0.00,0.00
173,-0.061069,0.068702,-0.190840,-0.271484,-0.554443,0.763184,0.00,0.00,0.00
174,-0.007634,0.160305,-0.366412,-0.272461,-0.560547,0.761963,0.00,0.00,0.00
175,0.083969,-0.015267,-0.175573,-0.269531,-0.560059,0.769775,0.00,0.00,0.00
176,0.129771,0.114504,-0.236641,-0.272217,-0.555176,0.761230,0.00,0.00,0.00
177,0.000000,0.122137,-0.221374,-0.272949,-0.552734,0.770752,0.00,0.00,0.00
178,0.045802,0.122137,-0.351145,-0.271484,-0.554688,0.763916,0.00,0.00,0.00
179,0.206107,0.038168,-0.305344,-0.274414,-0.556885,0.777832,0.00,0.00,0.00
180,0.190840,0.083969,-0.145038,-0.272217,-0.555664,0.765137,0.00,0.00,0.00
181,0.038168,0.000000,-0.091603,-0.273926,-0.555420,0.775146,0.00,0.00,0.00
182,0.076336,0.061069,-0.206107,-0.276367,-0.557617,0.762207,0.00,0.00,0.00
183,0.091603,-0.061069,-0.267176,-0.271240,-0.564941,0.769043,0.00,0.00,0.00
184,0.106870,-0.190840,-0.114504,-0.274170,-0.556152,0.763428,0.00,0.00,0.00
185,0.076336,-0.038168,-0.053435,-0.271240,-0.560303,0.770996,0.00,0.00,0.00
186,0.076336,0.045802,-0.290076,-0.266113,-0.559814,0.772217,0.00,0.00,0.00
187,-0.106870,-0.137405,-0.167939,-0.270020,-0.554443,0.772217,0.00,0.00,0.00
188,0.045802,-0.015267,-0.183206,-0.272461,-0.557861,0.766357,0.00,0.00,0.00
189,0.015267,-0.145038,-0.145038,-0.267090,-0.562256,0.764893,0.00,0.00,0.00
190,-0.091603,0.022901,-0.137405,-0.270264,-0.553955,0.770264,0.00,0.00,0.00
191,-0.083969,-0.030534,-0.137405,-0.274658,-0.551270,0.765869,0.00,0.00,0.00
192,0.015267,-0.038168,0.007634,-0.270752,-0.555176,0.776367,0.00,0.00,0.00
193,0.007634,0.114504,-0.122137,-0.275635,-0.557617,0.771240,0.00,0.00,0.00
194,-0.091603,0.091603,-0.152672,-0.278076,-0.562500,0.767578,0.00,0.00,0.00
195,-0.061069,-0.114504,-0.305344,-0.270752,-0.559326,0.770752,0.00,0.00,0.00
196,-0.007634,0.167939,-0.045802,-0.268311,-0.553711,0.760742,0.00,0.00,0.00
197,-0.053435,-0.106870,-0.045802,-0.268799,-0.550781,0.770752,0.00,0.00,0.00
198,-0.053435,0.053435,-0.083969,-0.273926,-0.556152,0.774658,0.00,0.00,0.00
199,-0.068702,-0.076336,-0.061069,-0.271729,-0.559082,0.772217,0.00,0.00,0.00
200,-0.129771,-0.183206,-0.099237,-0.278809,-0.552246,0.768066,0.00,0.00,0.00
201,-0.221374,-0.045802,-0.244275,-0.277100,-0.557129,0.759521,0.00,0.00,0.00
202,-0.122137,-0.122137,-0.251908,-0.270752,-0.554688,0.763184,0.00,0.00,0.00
203,0.061069,0.091603,-0.152672,-0.269287,-0.558594,0.764160,0.00,0.00,0.00
204,0.137405,-0.022901,-0.022901,-0.270752,-0.554688,0.761963,0.00,0.00,0.00
205,0.160305,0.000000,-0.122137,-0.275635,-0.554199,0.768311,0.00,0.00,0.00
206,-0.022901,0.076336,-0.145038,-0.264160,-0.559082,0.770020,0.00,0.00,0.00
207,0.015267,0.022901,-0.160305,-0.271729,-0.552979,0.769287,0.00,0.00,0.00
208,-0.106870,-0.030534,-0.305344,-0.272461,-0.558105,0.765869,0.00,0.00,0.00
209,0.015267,0.007634,-0.091603,-0.272705,-0.559814,0.769531,0.00,0.00,0.00
210,0.000000,-0.137405,-0.229008,-0.267578,-0.557129,0.775635,0.00,0.00,0.00
211,0.022901,-0.015267,-0.083969,-0.270264,-0.558838,0.768311,0.00,0.00,0.00
212,-0.015267,0.007634,-0.229008,-0.268066,-0.554199,0.772949,0.00,0.00,0.00
213,0.015267,0.076336,-0.160305,-0.265381,-0.556885,0.767822,0.00,0.00,0.00
214,-0.068702,-0.015267,-0.145038,-0.270752,-0.557617,0.768555,0.00,0.00,0.00
215,-0.030534,0.206107,-0.282443,-0.271484,-0.548584,0.771484,0.00,0.00,0.00
216,-0.007634,-0.145038,-0.175573,-0.270752,-0.554932,0.771729,0.00,0.00,0.00
217,-0.083969,0.068702,-0.091603,-0.273193,-0.555908,0.767334,0.00,0.00,0.00
218,-0.099237,0.129771,-0.099237,-0.271729,-0.554199,0.766602,0.00,0.00,0.00
219,-0.106870,-0.045802,-0.206107,-0.267334,-0.561523,0.771484,0.00,0.00,0.00
220,0.045802,-0.129771,-0.137405,-0.267090,-0.555664,0.769775,0.00,0.00,0.00
221,0.015267,-0.137405,-0.175573,-0.270752,-0.560791,0.764648,0.00,0.00,0.00
222,0.015267,-0.190840,0.007634,-0.275635,-0.561768,0.766846,0.00,0.00,0.00
223,0.061069,-0.496183,-0.267176,-0.271973,-0.563721,0.772461,0.00,0.00,0.00
224,0.038168,-0.320611,-0.160305,-0.270752,-0.552490,0.768311,0.00,0.00,0.00
225,-0.045802,-0.198473,-0.160305,-0.267090,-0.557617,0.764160,0.00,0.00,0.00
226,0.137405,-0.152672,-0.152672,-0.269775,-0.558350,0.772461,0.00,0.00,0.00
227,-0.045802,-0.129771,-0.267176,-0.267334,-0.553467,0.759521,0.00,0.00,0.00
228,0.137405,-0.229008,-0.068702,-0.277588,-0.556396,0.769531,0.00,0.00,0.00
229,0.137405,-0.145038,-0.145038,-0.274414,-0.567139,0.767090,0.00,0.00,0.00
230,0.122137,-0.114504,-0.290076,-0.268799,-0.558105,0.775635,0.00,0.00,0.00
231,0.045802,-0.167939,-0.198473,-0.272461,-0.553955,0.764648,0.00,0.00,0.00
232,0.053435,0.068702,-0.251908,-0.269531,-0.560547,0.769531,0.00,0.00,0.00
233,0.068702,-0.091603,-0.122137,-0.270752,-0.558594,0.770264,0.00,0.00,0.00
234,-0.091603,-0.152672,-0.244275,-0.276611,-0.558350,0.768311,0.00,0.00,0.00
235,0.160305,-0.274809,-0.198473,-0.270020,-0.554688,0.777832,0.00,0.00,0.00
236,0.190840,-0.122137,-0.061069,-0.274658,-0.559326,0.765137,0.00,0.00,0.00
237,0.030534,-0.106870,-0.167939,-0.269043,-0.552490,0.764893,0.00,0.00,0.00
238,0.198473,-0.114504,-0.229008,-0.274170,-0.552490,0.773682,0.00,0.00,0.00
239,-0.091603,-0.213740,-0.190840,-0.272949,-0.559814,0.770752,0.00,0.00,0.00
240,-0.053435,-0.152672,-0.229008,-0.269531,-0.556885,0.770264,0.00,0.00,0.00
241,0.015267,-0.358779,-0.145038,-0.277588,-0.555176,0.774658,0.00,0.00,0.00
242,0.099237,-0.213740,-0.106870,-0.269531,-0.557617,0.766846,0.00,0.00,0.00
243,0.145038,-0.190840,-0.129771,-0.270264,-0.560059,0.759521,0.00,0.00,0.00
244,0.137405,-0.267176,-0.114504,-0.275635,-0.551758,0.769043,0.00,0.00,0.00
245,-0.022901,-0.167939,-0.244275,-0.272949,-0.551025,0.759766,0.00,0.00,0.00
246,0.045802,-0.221374,-0.290076,-0.269043,-0.560303,0.773193,0.00,0.00,0.00
247,0.053435,-0.007634,-0.183206,-0.268799,-0.559082,0.770264,0.00,0.00,0.00
248,0.190840,-0.343511,-0.244275,-0.273682,-0.557617,0.769043,0.00,0.00,0.00
249,0.160305,-0.290076,-0.389313,-0.277344,-0.557129,0.767822,0.00,0.00,0.00
250,0.137405,0.007634,-0.274809,-0.271729,-0.553955,0.776367,0.00,0.00,0.00
251,0.145038,-0.167939,-0.328244,-0.272217,-0.561035,0.765381,0.00,0.00,0.00
252,0.061069,-0.076336,-0.206107,-0.264160,-0.554199,0.768799,0.00,0.00,0.00
253,-0.007634,-0.091603,-0.251908,-0.273438,-0.556641,0.763672,0.00,0.00,0.00
254,0.053435,-0.106870,-0.137405,-0.269531,-0.550537,0.765381,0.00,0.00,0.00
255,0.122137,-0.038168,-0.068702,-0.276367,-0.558594,0.770264,0.00,0.00,0.00
256,0.000000,-0.091603,-0.206107,-0.270752,-0.554443,0.761719,0.00,0.00,0.00
257,-0.152672,-0.099237,-0.320611,-0.273682,-0.562012,0.763428,0.00,0.00,0.00
258,0.053435,-0.091603,-0.259542,-0.271484,-0.553711,0.763428,0.00,0.00,0.00
259,0.000000,0.000000,-0.320611,-0.273193,-0.561035,0.762939,0.00,0.00,0.00
260,-0.053435,-0.152672,-0.343511,-0.267578,-0.554443,0.764648,0.00,0.00,0.00
261,0.129771,-0.290076,-0.145038,-0.271729,-0.553467,0.760010,0.00,0.00,0.00
262,0.068702,-0.145038,-0.106870,-0.267578,-0.556641,0.770508,0.00,0.00,0.00
263,0.007634,-0.160305,-0.305344,-0.268066,-0.553955,0.768799,0.00,0.00,0.00
264,0.015267,-0.244275,-0.229008,-0.277344,-0.556396,0.778564,0.00,0.00,0.00
265,0.068702,-0.167939,-0.206107,-0.270752,-0.555176,0.772949,0.00,0.00,0.00
266,-0.045802,-0.030534,-0.053435,-0.271729,-0.553955,0.766113,0.00,0.00,0.00
267,-0.076336,-0.030534,-0.221374,-0.267090,-0.554932,0.774170,0.00,0.00,0.00
268,0.007634,0.122137,-0.366412,-0.276611,-0.553955,0.766846,0.00,0.00,0.00
269,0.022901,-0.015267,-0.083969,-0.275146,-0.552734,0.774902,0.00,0.00,0.00
270,0.007634,0.022901,-0.251908,-0.275391,-0.555908,0.763184,0.00,0.00,0.00
271,-0.022901,-0.030534,-0.259542,-0.272217,-0.552979,0.769043,0.00,0.00,0.00
272,-0.038168,0.000000,-0.083969,-0.274414,-0.557373,0.770996,0.00,0.00,0.00
273,0.076336,0.045802,-0.351145,-0.275146,-0.558350,0.771973,0.00,0.00,0.00
274,0.038168,-0.091603,-0.343511,-0.265381,-0.556885,0.766357,0.00,0.00,0.00
275,-0.038168,-0.099237,-0.083969,-0.269287,-0.554199,0.772949,0.00,0.00,0.00
276,-0.106870,-0.061069,-0.099237,-0.275146,-0.553955,0.774414,0.00,0.00,0.00
277,-0.038168,0.015267,-0.068702,-0.268066,-0.552979,0.766357,0.00,0.00,0.00
278,-0.022901,0.122137,-0.221374,-0.265869,-0.560547,0.769531,0.00,0.00,0.00
279,-0.068702,-0.030534,-0.290076,-0.269531,-0.558105,0.760254,0.00,0.00,0.00
280,0.015267,-0.083969,-0.145038,-0.270752,-0.559814,0.764893,0.00,0.00,0.00
281,-0.007634,-0.206107,-0.259542,-0.270020,-0.558105,0.761475,0.00,0.00,0.00
282,0.015267,-0.190840,-0.206107,-0.272949,-0.558105,0.772217,0.00,0.00,0.00
283,-0.045802,-0.076336,-0.244275,-0.269287,-0.555420,0.766113,0.00,0.00,0.00
284,0.099237,-0.022901,-0.297710,-0.270996,-0.558350,0.766846,0.00,0.00,0.00
285,-0.038168,-0.015267,-0.160305,-0.277832,-0.554688,0.771729,0.00,0.00,0.00
286,-0.053435,0.007634,-0.267176,-0.271973,-0.556641,0.773438,0.00,0.00,0.00
287,-0.076336,-0.076336,-0.213740,-0.272217,-0.556396,0.777100,0.00,0.00,0.00
288,0.061069,-0.160305,-0.030534,-0.273682,-0.560791,0.770264,0.00,0.00,0.00
289,0.061069,-0.076336,-0.183206,-0.277832,-0.552002,0.768311,0.00,0.00,0.00
290,0.015267,-0.221374,-0.236641,-0.270020,-0.556885,0.765381,0.00,0.00,0.00
291,0.015267,0.007634,-0.328244,-0.272217,-0.559326,0.763428,0.00,0.00,0.00
292,-0.045802,-0.190840,-0.312977,-0.271240,-0.559814,0.773926,0.00,0.00,0.00
293,0.007634,-0.213740,-0.083969,-0.271240,-0.558105,0.769775,0.00,0.00,0.00
294,-0.015267,-0.061069,-0.229008,-0.281738,-0.561523,0.765869,0.00,0.00,0.00
295,-0.007634,-0.122137,-0.129771,-0.265137,-0.554199,0.765625,0.00,0.00,0.00
296,-0.091603,0.068702,-0.129771,-0.266357,-0.553467,0.772705,0.00,0.00,0.00
297,-0.053435,-0.068702,-0.160305,-0.263916,-0.557861,0.773682,0.00,0.00,0.00
298,-0.022901,-0.053435,-0.007634,-0.270020,-0.553955,0.777100,0.00,0.00,0.00
299,-0.030534,0.015267,-0.152672,-0.274170,-0.558594,0.772461,0.00,0.00,0.00
300,-0.068702,0.045802,-0.061069,-0.268311,-0.556152,0.767822,0.00,0.00,0.00
301,0.022901,-0.106870,-0.152672,-0.274658,-0.557617,0.774658,0.00,0.00,0.00
302,-0.045802,-0.145038,-0.229008,-0.269531,-0.560303,0.768066,0.00,0.00,0.00
303,0.068702,-0.076336,-0.198473,-0.271240,-0.554688,0.762451,0.00,0.00,0.00
304,-0.045802,-0.145038,-0.236641,-0.266113,-0.555420,0.767822,0.00,0.00,0.00
305,-0.015267,-0.045802,-0.190840,-0.272461,-0.551758,0.772217,0.00,0.00,0.00
306,-0.045802,-0.106870,-0.106870,-0.274902,-0.550293,0.772949,0.00,0.00,0.00
307,-0.106870,-0.045802,-0.083969,-0.270020,-0.556152,0.766113,0.00,0.00,0.00
308,0.030534,-0.198473,-0.213740,-0.273438,-0.560791,0.767578,0.00,0.00,0.00
309,0.083969,0.053435,-0.160305,-0.273926,-0.556396,0.770752,0.00,0.00,0.00
310,-0.061069,-0.068702,-0.320611,-0.275391,-0.562256,0.768066,0.00,0.00,0.00
311,-0.076336,-0.290076,-0.145038,-0.269531,-0.554199,0.774170,0.00,0.00,0.00
312,0.091603,0.000000,-0.083969,-0.270996,-0.564209,0.771240,0.00,0.00,0.00
313,0.015267,-0.038168,-0.145038,-0.272461,-0.558350,0.761475,0.00,0.00,0.00
314,-0.091603,-0.022901,-0.221374,-0.266357,-0.555908,0.769043,0.00,0.00,0.00
315,0.122137,-0.213740,-0.022901,-0.270020,-0.558838,0.769775,0.00,0.00,0.00
316,-0.068702,-0.068702,-0.190840,-0.274902,-0.556152,0.765625,0.00,0.00,0.00
317,0.152672,-0.007634,-0.114504,-0.271484,-0.551025,0.764648,0.00,0.00,0.00
318,-0.015267,0.167939,0.000000,-0.274658,-0.561035,0.771240,0.00,0.00,0.00
319,0.038168,0.022901,-0.053435,-0.270508,-0.552490,0.761230,0.00,0.00,0.00
320,0.030534,-0.076336,0.061069,-0.274414,-0.555420,0.765869,0.00,0.00,0.00
321,0.129771,-0.076336,0.015267,-0.274170,-0.554688,0.769043,0.00,0.00,0.00
322,0.045802,-0.068702,-0.015267,-0.270996,-0.553711,0.762207,0.00,0.00,0.00
323,0.022901,-0.122137,-0.221374,-0.275879,-0.554199,0.761719,0.00,0.00,0.00
324,0.099237,-0.221374,-0.206107,-0.269287,-0.559326,0.766357,0.00,0.00,0.00
325,0.244275,-0.160305,-0.267176,-0.271729,-0.555908,0.771240,0.00,0.00,0.00
326,0.328244,-0.442748,-0.213740,-0.271729,-0.556152,0.769531,0.00,0.00,0.00
327,0.183206,-0.381679,-0.427481,-0.273926,-0.560059,0.775391,0.00,0.00,0.00
328,0.305344,-0.374046,-0.412214,-0.270508,-0.554688,0.767334,0.00,0.00,0.00
329,0.389313,-0.282443,-0.366412,-0.269287,-0.557373,0.770020,0.00,0.00,0.00
330,0.320611,-0.335878,-0.389313,-0.267822,-0.554443,0.765381,0.00,0.00,0.00
331,0.244275,-0.404580,-0.251908,-0.275635,-0.552246,0.768799,0.00,0.00,0.00
332,0.229008,-0.274809,-0.320611,-0.271729,-0.558105,0.776611,0.00,0.00,0.00
333,0.221374,-0.190840,-0.229008,-0.273926,-0.554688,0.769775,0.00,0.00,0.00
334,0.221374,-0.213740,-0.175573,-0.263184,-0.554199,0.758789,0.00,0.00,0.00
335,0.145038,-0.145038,-0.198473,-0.264160,-0.559326,0.773682,0.00,0.00,0.00
336,0.167939,-0.137405,-0.160305,-0.270508,-0.557129,0.771240,0.00,0.00,0.00
337,0.091603,-0.129771,-0.175573,-0.275146,-0.561035,0.767090,0.00,0.00,0.00
338,0.160305,-0.183206,-0.183206,-0.272705,-0.555664,0.770996,0.00,0.00,0.00
339,0.106870,-0.198473,-0.374046,-0.265625,-0.554688,0.771240,0.00,0.00,0.00
340,0.152672,-0.244275,-0.335878,-0.274170,-0.558594,0.763672,0.00,0.00,0.00
341,0.213740,-0.343511,-0.259542,-0.268066,-0.560791,0.768555,0.00,0.00,0.00
342,0.259542,-0.213740,-0.213740,-0.280762,-0.552734,0.771729,0.00,0.00,0.00
343,0.129771,-0.396947,-0.419847,-0.273193,-0.554932,0.767334,0.00,0.00,0.00
344,0.282443,-0.343511,-0.450382,-0.267334,-0.560303,0.769043,0.00,0.00,0.00
345,0.183206,-0.450382,-0.305344,-0.272705,-0.554932,0.771240,0.00,0.00,0.00
346,0.374046,-0.274809,-0.335878,-0.269287,-0.555908,0.777100,0.00,0.00,0.00
347,0.206107,-0.328244,-0.450382,-0.261719,-0.556641,0.771973,0.00,0.00,0.00
348,0.198473,-0.244275,-0.175573,-0.272217,-0.549316,0.769043,0.00,0.00,0.00
349,0.076336,-0.374046,-0.282443,-0.260986,-0.551514,0.762207,0.00,0.00,0.00
350,0.198473,-0.374046,-0.229008,-0.264404,-0.552002,0.767334,0.00,0.00,0.00
351,0.175573,-0.251908,-0.259542,-0.266357,-0.554688,0.770020,0.00,0.00,0.00
352,-0.038168,-0.236641,-0.274809,-0.270996,-0.556641,0.760010,0.00,0.00,0.00
353,0.175573,-0.114504,-0.282443,-0.270264,-0.556152,0.772461,0.00,0.00,0.00
354,0.022901,-0.038168,-0.129771,-0.265625,-0.551270,0.772217,0.00,0.00,0.00
355,0.083969,0.091603,-0.022901,-0.270752,-0.554199,0.766846,0.00,0.00,0.00
356,0.022901,0.000000,-0.183206,-0.277344,-0.558105,0.771240,0.00,0.00,0.00
357,-0.053435,-0.030534,0.000000,-0.269531,-0.559326,0.772949,0.00,0.00,0.00
358,-0.015267,-0.045802,-0.053435,-0.272461,-0.553955,0.761963,0.00,0.00,0.00
359,-0.045802,-0.076336,-0.106870,-0.270752,-0.556396,0.765381,0.00,0.00,0.00
360,-0.030534,-0.076336,0.007634,-0.270996,-0.553711,0.770020,0.00,0.00,0.00
361,-0.083969,-0.045802,-0.091603,-0.271484,-0.561768,0.762695,0.00,0.00,0.00
362,-0.160305,0.167939,0.000000,-0.267822,-0.559082,0.775879,0.00,0.00,0.00
363,-0.129771,0.007634,-0.106870,-0.270752,-0.552979,0.767090,0.00,0.00,0.00
364,-0.160305,-0.167939,-0.160305,-0.265869,-0.553711,0.770752,0.00,0.00,0.00
365,0.030534,-0.076336,-0.137405,-0.273682,-0.551758,0.774658,0.00,0.00,0.00
366,-0.045802,-0.167939,-0.152672,-0.274902,-0.554443,0.775391,0.00,0.00,0.00
367,-0.198473,-0.022901,-0.137405,-0.267334,-0.557861,0.774902,0.00,0.00,0.00
368,-0.038168,-0.022901,-0.175573,-0.271240,-0.559082,0.764893,0.00,0.00,0.00
369,-0.061069,-0.061069,-0.083969,-0.268799,-0.561523,0.767334,0.00,0.00,0.00
370,0.083969,-0.282443,-0.152672,-0.271729,-0.558838,0.769287,0.00,0.00,0.00
371,0.015267,-0.129771,0.015267,-0.266357,-0.549805,0.771729,0.00,0.00,0.00
372,-0.114504,-0.038168,-0.259542,-0.271240,-0.559814,0.766113,0.00,0.00,0.00
373,-0.053435,-0.114504,-0.137405,-0.269287,-0.553711,0.767090,0.00,0.00,0.00
374,-0.030534,-0.244275,-0.213740,-0.274170,-0.555176,0.771729,0.00,0.00,0.00
375,-0.068702,-0.244275,-0.396947,-0.275146,-0.559082,0.768311,0.00,0.00,0.00
376,0.030534,-0.099237,-0.030534,-0.267578,-0.561523,0.764404,0.00,0.00,0.00
377,0.038168,-0.267176,-0.137405,-0.269287,-0.546875,0.766357,0.00,0.00,0.00
378,0.145038,-0.557252,-0.343511,-0.273926,-0.555420,0.768799,0.00,0.00,0.00
379,0.076336,-0.335878,-0.312977,-0.270264,-0.552490,0.764893,0.00,0.00,0.00
380,0.198473,-0.526718,-0.374046,-0.275391,-0.552490,0.763672,0.00,0.00,0.00
381,0.259542,-0.358779,-0.427481,-0.265381,-0.557373,0.763184,0.00,0.00,0.00
382,0.259542,-0.312977,-0.274809,-0.270508,-0.552246,0.765381,0.00,0.00,0.00
383,-0.061069,-0.404580,-0.137405,-0.268555,-0.559082,0.767578,0.00,0.00,0.00
384,-0.076336,0.015267,-0.038168,-0.259766,-0.559570,0.764893,0.00,0.00,0.00
385,-0.167939,-0.282443,-0.083969,-0.270996,-0.554199,0.770264,0.00,0.00,0.00
386,-0.007634,-0.206107,-0.145038,-0.264160,-0.553711,0.753906,0.00,0.00,0.00
387,0.007634,0.145038,-0.259542,-0.267822,-0.557129,0.770752,0.00,0.00,0.00
388,-0.045802,-0.145038,-0.213740,-0.278809,-0.560059,0.758545,0.00,0.00,0.00
389,-0.068702,0.022901,-0.053435,-0.271729,-0.553467,0.764404,0.00,0.00,0.00
390,-0.167939,-0.083969,-0.083969,-0.275146,-0.554932,0.764648,0.00,0.00,0.00
391,0.061069,0.007634,-0.122137,-0.275146,-0.555908,0.770264,0.00,0.00,0.00
392,0.007634,-0.152672,-0.236641,-0.271973,-0.554932,0.763428,0.00,0.00,0.00
393,0.015267,-0.167939,-0.030534,-0.270996,-0.556641,0.762451,0.00,0.00,0.00
394,0.091603,-0.053435,-0.206107,-0.270264,-0.552490,0.768311,0.00,0.00,0.00
395,0.083969,-0.122137,-0.190840,-0.268555,-0.551025,0.767090,0.00,0.00,0.00
396,0.000000,-0.152672,-0.190840,-0.268799,-0.560303,0.773682,0.00,0.00,0.00
397,0.091603,-0.045802,-0.145038,-0.272461,-0.557617,0.777100,0.00,0.00,0.00
398,0.145038,-0.099237,-0.122137,-0.264648,-0.555176,0.773926,0.00,0.00,0.00
399,-0.053435,0.053435,-0.206107,-0.266602,-0.558594,0.765137,0.00,0.00,0.00
400,-0.076336,0.022901,-0.114504,-0.274658,-0.555420,0.766357,0.00,0.00,0.00
401,-0.129771,-0.022901,-0.106870,-0.272461,-0.552490,0.773438,0.00,0.00,0.00
402,-0.091603,0.068702,-0.091603,-0.271729,-0.562744,0.769531,0.00,0.00,0.00
403,-0.160305,0.015267,0.000000,-0.269531,-0.558350,0.768311,0.00,0.00,0.00
404,-0.190840,0.099237,-0.167939,-0.263184,-0.554932,0.766357,0.00,0.00,0.00
405,-0.122137,0.106870,-0.290076,-0.272461,-0.555420,0.777832,0.00,0.00,0.00
406,-0.022901,0.061069,-0.236641,-0.270996,-0.554688,0.769287,0.00,0.00,0.00
407,0.022901,0.053435,-0.145038,-0.269531,-0.559814,0.765625,0.00,0.00,0.00
408,-0.061069,0.145038,-0.152672,-0.270508,-0.551514,0.772949,0.00,0.00,0.00
409,-0.068702,0.007634,-0.145038,-0.266602,-0.557861,0.768555,0.00,0.00,0.00
410,-0.091603,0.068702,-0.213740,-0.266113,-0.558105,0.765381,0.00,0.00,0.00
411,-0.145038,0.076336,-0.053435,-0.263428,-0.558838,0.769287,0.00,0.00,0.00
412,-0.198473,-0.114504,-0.091603,-0.270264,-0.554688,0.765869,0.00,0.00,0.00
413,-0.167939,-0.099237,-0.213740,-0.273682,-0.556396,0.767822,0.00,0.00,0.00
414,-0.061069,-0.038168,-0.091603,-0.274902,-0.552734,0.769043,0.00,0.00,0.00
415,-0.015267,0.022901,-0.236641,-0.271973,-0.554199,0.763916,0.00,0.00,0.00
416,-0.122137,-0.030534,-0.175573,-0.268799,-0.557861,0.770020,0.00,0.00,0.00
417,-0.053435,-0.015267,-0.206107,-0.268066,-0.554199,0.771484,0.00,0.00,0.00
418,-0.091603,0.015267,-0.183206,-0.269531,-0.555664,0.764160,0.00,0.00,0.00
419,-0.167939,-0.076336,-0.053435,-0.271240,-0.558105,0.764404,0.00,0.00,0.00
420,-0.045802,0.022901,-0.236641,-0.272217,-0.560059,0.776123,0.00,0.00,0.00
421,-0.106870,0.091603,-0.213740,-0.267334,-0.552490,0.771484,0.00,0.00,0.00
422,-0.099237,0.030534,-0.198473,-0.270508,-0.559082,0.766602,0.00,0.00,0.00
423,0.015267,-0.015267,-0.167939,-0.267578,-0.559082,0.768311,0.00,0.00,0.00
424,-0.053435,0.053435,-0.099237,-0.270752,-0.559082,0.760010,0.00,0.00,0.00
425,0.022901,-0.030534,-0.007634,-0.269531,-0.552246,0.772461,0.00,0.00,0.00
426,0.022901,-0.061069,-0.022901,-0.270020,-0.556885,0.775635,0.00,0.00,0.00
427,-0.099237,0.076336,-0.129771,-0.271240,-0.555420,0.766602,0.00,0.00,0.00
428,0.030534,0.053435,-0.167939,-0.273682,-0.552734,0.774170,0.00,0.00,0.00
429,-0.068702,0.099237,-0.221374,-0.270020,-0.558105,0.762207,0.00,0.00,0.00
430,-0.137405,0.053435,-0.122137,-0.270264,-0.556641,0.766113,0.00,0.00,0.00
431,-0.167939,0.038168,-0.083969,-0.268311,-0.553955,0.771240,0.00,0.00,0.00
432,-0.099237,-0.068702,-0.091603,-0.267822,-0.557129,0.768066,0.00,0.00,0.00
433,-0.007634,-0.015267,0.076336,-0.276855,-0.556396,0.775391,0.00,0.00,0.00
434,-0.106870,0.053435,-0.229008,-0.268799,-0.555176,0.767578,0.00,0.00,0.00
435,-0.099237,0.053435,-0.129771,-0.276611,-0.550537,0.766602,0.00,0.00,0.00
436,-0.053435,-0.114504,-0.160305,-0.267578,-0.558105,0.771484,0.00,0.00,0.00
437,-0.152672,-0.091603,-0.183206,-0.269287,-0.558350,0.769287,0.00,0.00,0.00
438,-0.122137,0.015267,-0.091603,-0.270508,-0.555176,0.762451,0.00,0.00,0.00
439,-0.076336,-0.091603,-0.099237,-0.268799,-0.553711,0.766602,0.00,0.00,0.00
440,0.007634,0.045802,0.000000,-0.267822,-0.559082,0.761475,0.00,0.00,0.00
441,-0.091603,0.045802,-0.145038,-0.276123,-0.556152,0.770508,0.00,0.00,0.00
442,-0.267176,0.152672,-0.145038,-0.271729,-0.553467,0.768555,0.00,0.00,0.00
443,0.053435,0.076336,-0.038168,-0.269287,-0.559570,0.766602,0.00,0.00,0.00
444,-0.229008,0.091603,-0.213740,-0.266357,-0.553467,0.768311,0.00,0.00,0.00
445,-0.099237,0.038168,-0.213740,-0.267090,-0.555420,0.769043,0.00,0.00,0.00
446,-0.267176,-0.099237,0.000000,-0.273682,-0.554688,0.763184,0.00,0.00,0.00
447,-0.083969,-0.083969,-0.190840,-0.275635,-0.558105,0.771484,0.00,0.00,0.00
448,-0.122137,-0.015267,-0.053435,-0.275146,-0.556885,0.776123,0.00,0.00,0.00
449,-0.167939,0.145038,0.030534,-0.267578,-0.556152,0.768311,0.00,0.00,0.00
450,-0.274809,0.076336,-0.129771,-0.272461,-0.553711,0.767090,0.00,0.00,0.00
451,-0.129771,0.091603,-0.320611,-0.273926,-0.555664,0.775391,0.00,0.00,0.00
452,-0.145038,0.083969,-0.221374,-0.273682,-0.554443,0.765381,0.00,0.00,0.00
453,-0.091603,0.137405,-0.068702,-0.273926,-0.557861,0.771973,0.00,0.00,0.00
454,-0.274809,0.045802,-0.137405,-0.257080,-0.559326,0.767090,0.00,0.00,0.00
455,-0.083969,0.091603,-0.183206,-0.267090,-0.552734,0.770752,0.00,0.00,0.00
456,-0.366412,0.030534,-0.022901,-0.270996,-0.553955,0.765869,0.00,0.00,0.00
457,-0.244275,0.152672,-0.236641,-0.273682,-0.558350,0.759766,0.00,0.00,0.00
458,-0.312977,0.122137,-0.213740,-0.268555,-0.559082,0.764893,0.00,0.00,0.00
459,-0.221374,0.114504,-0.091603,-0.269287,-0.560547,0.774170,0.00,0.00,0.00
460,-0.129771,0.099237,-0.038168,-0.268311,-0.559082,0.771484,0.00,0.00,0.00
461,-0.068702,-0.068702,-0.137405,-0.271484,-0.556641,0.773926,0.00,0.00,0.00
462,-0.183206,0.007634,-0.259542,-0.273193,-0.555176,0.771240,0.00,0.00,0.00
463,-0.183206,-0.015267,-0.129771,-0.277832,-0.555176,0.771973,0.00,0.00,0.00
464,-0.175573,-0.061069,-0.167939,-0.266602,-0.556396,0.764404,0.00,0.00,0.00
465,-0.167939,0.183206,-0.076336,-0.275146,-0.556641,0.770264,0.00,0.00,0.00
466,-0.213740,-0.030534,-0.251908,-0.276611,-0.547852,0.770752,0.00,0.00,0.00
467,-0.282443,-0.022901,-0.061069,-0.266846,-0.559326,0.771973,0.00,0.00,0.00
468,-0.183206,0.015267,-0.099237,-0.262939,-0.552979,0.770996,0.00,0.00,0.00
469,-0.267176,-0.076336,-0.305344,-0.269531,-0.555664,0.762451,0.00,0.00,0.00
470,-0.068702,-0.083969,-0.145038,-0.270020,-0.559082,0.771240,0.00,0.00,0.00
471,-0.221374,-0.099237,-0.358779,-0.269287,-0.564453,0.771729,0.00,0.00,0.00
472,-0.229008,-0.061069,-0.236641,-0.270020,-0.558105,0.770264,0.00,0.00,0.00
473,-0.145038,-0.129771,-0.320611,-0.270508,-0.560303,0.770020,0.00,0.00,0.00
474,-0.099237,-0.106870,-0.167939,-0.271240,-0.555176,0.769531,0.00,0.00,0.00
475,-0.259542,-0.213740,-0.221374,-0.271484,-0.557861,0.774414,0.00,0.00,0.00
476,-0.259542,-0.122137,-0.274809,-0.272949,-0.556885,0.771240,0.00,0.00,0.00
477,-0.198473,-0.038168,-0.328244,-0.273438,-0.556396,0.764160,0.00,0.00,0.00
478,-0.175573,-0.007634,-0.114504,-0.267334,-0.556885,0.763428,0.00,0.00,0.00
479,-0.251908,0.038168,-0.328244,-0.259766,-0.554443,0.768555,0.00,0.00,0.00
480,-0.152672,0.030534,-0.213740,-0.268066,-0.550537,0.770508,0.00,0.00,0.00
481,-0.175573,0.053435,-0.198473,-0.266357,-0.549805,0.770264,0.00,0.00,0.00
482,-0.076336,0.152672,-0.160305,-0.273926,-0.555664,0.771973,0.00,0.00,0.00
483,-0.206107,-0.038168,-0.129771,-0.271973,-0.556152,0.769287,0.00,0.00,0.00
484,-0.175573,-0.053435,-0.175573,-0.270508,-0.558105,0.768555,0.00,0.00,0.00
485,-0.244275,-0.290076,-0.152672,-0.266357,-0.553711,0.768799,0.00,0.00,0.00
486,0.000000,-0.236641,-0.290076,-0.270264,-0.561035,0.761475,0.00,0.00,0.00
487,0.000000,-0.190840,-0.030534,-0.264648,-0.554932,0.773682,0.00,0.00,0.00
488,-0.213740,-0.175573,-0.374046,-0.264893,-0.562256,0.755859,0.00,0.00,0.00
489,-0.122137,-0.396947,-0.358779,-0.274170,-0.555420,0.763916,0.00,0.00,0.00
490,-0.145038,-0.305344,-0.328244,-0.267090,-0.555908,0.762695,0.00,0.00,0.00
491,-0.114504,-0.297710,-0.221374,-0.272461,-0.555664,0.771729,0.00,0.00,0.00
492,-0.007634,-0.198473,-0.274809,-0.260010,-0.554199,0.766113,0.00,0.00,0.00
493,-0.099237,-0.190840,-0.282443,-0.261963,-0.559814,0.770508,0.00,0.00,0.00
494,-0.030534,-0.282443,-0.236641,-0.266846,-0.552246,0.769043,0.00,0.00,0.00
495,-0.137405,0.000000,-0.320611,-0.268066,-0.560791,0.772217,0.00,0.00,0.00
496,0.015267,-0.305344,-0.259542,-0.270020,-0.556641,0.769043,0.00,0.00,0.00
497,-0.061069,-0.381679,-0.305344,-0.270508,-0.556641,0.770508,0.00,0.00,0.00
498,-0.190840,-0.137405,-0.213740,-0.274170,-0.556641,0.777100,0.00,0.00,0.00
499,-0.129771,-0.160305,-0.175573,-0.266357,-0.555420,0.770508,0.00,0.00,0.00
500,-0.145038,-0.145038,-0.244275,-0.267090,-0.560791,0.764404,0.00,0.00,0.00
501,-0.152672,-0.068702,0.129771,-0.271973,-0.559570,0.771729,0.00,0.00,0.00
502,-0.114504,-0.152672,-0.229008,-0.272217,-0.557129,0.766113,0.00,0.00,0.00
503,-0.175573,-0.190840,-0.190840,-0.266602,-0.553467,0.762939,0.00,0.00,0.00
504,-0.022901,-0.022901,-0.358779,-0.271240,-0.553467,0.767090,0.00,0.00,0.00
505,-0.091603,-0.106870,-0.206107,-0.269531,-0.561279,0.763428,0.00,0.00,0.00
506,-0.267176,-0.068702,-0.076336,-0.271729,-0.556152,0.766357,0.00,0.00,0.00
507,-0.229008,-0.022901,-0.122137,-0.272461,-0.558105,0.768066,0.00,0.00,0.00
508,-0.145038,0.045802,-0.114504,-0.275391,-0.558594,0.776123,0.00,0.00,0.00
509,-0.129771,-0.152672,-0.122137,-0.269531,-0.554688,0.769287,0.00,0.00,0.00
510,-0.236641,-0.137405,-0.221374,-0.277344,-0.554688,0.766357,0.00,0.00,0.00
511,-0.053435,-0.129771,-0.152672,-0.271484,-0.557373,0.763672,0.00,0.00,0.00
512,0.099237,-0.244275,-0.213740,-0.268311,-0.559570,0.769043,0.00,0.00,0.00
513,0.022901,-0.251908,-0.244275,-0.263672,-0.555908,0.773926,0.00,0.00,0.00
514,0.061069,-0.290076,-0.251908,-0.268799,-0.554199,0.771973,0.00,0.00,0.00
515,-0.091603,-0.213740,-0.099237,-0.265137,-0.551758,0.762451,0.00,0.00,0.00
516,-0.007634,-0.274809,-0.145038,-0.271240,-0.561768,0.762695,0.00,0.00,0.00
517,-0.229008,0.015267,-0.106870,-0.267578,-0.557861,0.775146,0.00,0.00,0.00
518,-0.099237,0.091603,-0.068702,-0.270996,-0.563232,0.767334,0.00,0.00,0.00
519,-0.068702,-0.045802,-0.099237,-0.270020,-0.557129,0.775146,0.00,0.00,0.00
520,-0.198473,-0.007634,-0.068702,-0.266602,-0.556396,0.767090,0.00,0.00,0.00
521,0.045802,0.053435,-0.045802,-0.270020,-0.559082,0.764893,0.00,0.00,0.00
522,0.038168,-0.190840,-0.022901,-0.270020,-0.551758,0.769043,0.00,0.00,0.00
523,0.083969,-0.129771,-0.206107,-0.270020,-0.553223,0.768555,0.00,0.00,0.00
524,-0.030534,-0.198473,-0.160305,-0.275635,-0.563232,0.764893,0.00,0.00,0.00
525,0.045802,-0.183206,-0.114504,-0.269531,-0.554443,0.764893,0.00,0.00,0.00
526,0.213740,-0.213740,-0.320611,-0.263184,-0.551514,0.765625,0.00,0.00,0.00
527,0.061069,-0.305344,-0.229008,-0.258789,-0.551514,0.773438,0.00,0.00,0.00
528,-0.015267,-0.114504,-0.061069,-0.269043,-0.552246,0.760254,0.00,0.00,0.00
529,0.068702,-0.389313,-0.145038,-0.263916,-0.560059,0.771729,0.00,0.00,0.00
530,0.053435,-0.129771,-0.068702,-0.273682,-0.554199,0.771973,0.00,0.00,0.00
531,0.145038,-0.183206,-0.190840,-0.271729,-0.562256,0.764893,0.00,0.00,0.00
532,0.000000,-0.160305,-0.129771,-0.264893,-0.556641,0.770264,0.00,0.00,0.00
533,0.061069,-0.290076,-0.068702,-0.270996,-0.558838,0.759766,0.00,0.00,0.00
534,0.160305,-0.351145,-0.267176,-0.265625,-0.556885,0.763184,0.00,0.00,0.00
535,0.038168,-0.206107,-0.267176,-0.264404,-0.553711,0.768555,0.00,0.00,0.00
536,0.000000,-0.213740,-0.091603,-0.268555,-0.558350,0.767090,0.00,0.00,0.00
537,0.145038,-0.282443,-0.122137,-0.261719,-0.554443,0.768066,0.00,0.00,0.00
538,-0.038168,-0.236641,-0.190840,-0.266357,-0.554443,0.767578,0.00,0.00,0.00
539,0.083969,-0.206107,-0.290076,-0.271729,-0.557617,0.765625,0.00,0.00,0.00
540,-0.083969,-0.145038,-0.137405,-0.265625,-0.562012,0.775391,0.00,0.00,0.00
541,0.038168,-0.167939,-0.007634,-0.271729,-0.558594,0.768066,0.00,0.00,0.00
542,0.000000,-0.206107,-0.076336,-0.265381,-0.554932,0.771484,0.00,0.00,0.00
543,0.083969,-0.030534,-0.038168,-0.272461,-0.554443,0.763184,0.00,0.00,0.00
544,-0.083969,-0.099237,-0.030534,-0.267822,-0.556885,0.766602,0.00,0.00,0.00
545,-0.106870,-0.091603,-0.007634,-0.276855,-0.557861,0.768066,0.00,0.00,0.00
546,0.091603,-0.290076,-0.167939,-0.271240,-0.557861,0.773682,0.00,0.00,0.00
547,0.267176,-0.251908,-0.274809,-0.268066,-0.556885,0.765137,0.00,0.00,0.00
548,0.335878,-0.671756,-0.435115,-0.275879,-0.552246,0.770996,0.00,0.00,0.00
549,0.450382,-0.610687,-0.351145,-0.265625,-0.555420,0.763184,0.00,0.00,0.00
550,0.389313,-0.458015,-0.496183,-0.271729,-0.554932,0.763428,0.00,0.00,0.00
551,0.229008,-0.503817,-0.503817,-0.263428,-0.559570,0.767578,0.00,0.00,0.00
552,0.190840,-0.480916,-0.229008,-0.271484,-0.552002,0.768799,0.00,0.00,0.00
553,0.045802,-0.519084,-0.259542,-0.268555,-0.552002,0.764648,0.00,0.00,0.00
554,0.061069,-0.236641,-0.167939,-0.262695,-0.558594,0.769287,0.00,0.00,0.00
555,-0.114504,-0.190840,-0.267176,-0.261963,-0.559082,0.771973,0.00,0.00,0.00
556,-0.099237,-0.053435,-0.091603,-0.262695,-0.556885,0.767578,0.00,0.00,0.00
557,-0.435115,0.274809,-0.022901,-0.265381,-0.557129,0.770020,0.00,0.00,0.00
558,-0.290076,0.068702,-0.007634,-0.272949,-0.552246,0.763428,0.00,0.00,0.00
559,-0.458015,0.045802,0.152672,-0.268799,-0.555420,0.767090,0.00,0.00,0.00
560,-0.328244,0.152672,-0.015267,-0.269775,-0.557861,0.767334,0.00,0.00,0.00
561,-0.335878,0.068702,0.122137,-0.275391,-0.556152,0.762939,0.00,0.00,0.00
562,-0.305344,-0.015267,-0.290076,-0.277344,-0.556885,0.765869,0.00,0.00,0.00
563,-0.053435,-0.312977,-0.083969,-0.271729,-0.551270,0.774414,0.00,0.00,0.00
564,0.091603,0.007634,-0.183206,-0.268555,-0.551025,0.774414,0.00,0.00,0.00
565,-0.244275,-0.221374,-0.122137,-0.267334,-0.565430,0.761230,0.00,0.00,0.00
566,-0.167939,-0.351145,-0.213740,-0.264404,-0.557617,0.769531,0.00,0.00,0.00
567,0.038168,-0.396947,0.061069,-0.276123,-0.563965,0.765137,0.00,0.00,0.00
568,-0.061069,-0.145038,-0.061069,-0.273682,-0.557129,0.758789,0.00,0.00,0.00
569,-0.068702,-0.374046,-0.229008,-0.277344,-0.555664,0.767090,0.00,0.00,0.00
570,0.045802,-0.244275,-0.129771,-0.279297,-0.561279,0.771973,0.00,0.00,0.00
571,0.099237,-0.244275,-0.244275,-0.268066,-0.559082,0.771729,0.00,0.00,0.00
572,-0.053435,-0.419847,-0.068702,-0.268311,-0.554688,0.776611,0.00,0.00,0.00
573,0.099237,-0.137405,-0.038168,-0.268066,-0.557617,0.767090,0.00,0.00,0.00
574,-0.129771,-0.351145,-0.083969,-0.273193,-0.550781,0.766113,0.00,0.00,0.00
575,0.076336,-0.221374,-0.167939,-0.268311,-0.554688,0.773193,0.00,0.00,0.00
576,-0.045802,-0.152672,0.091603,-0.262451,-0.555420,0.776367,0.00,0.00,0.00
577,-0.137405,-0.045802,-0.053435,-0.263428,-0.556641,0.774902,0.00,0.00,0.00
578,-0.351145,0.061069,-0.015267,-0.260498,-0.558350,0.770996,0.00,0.00,0.00
579,-0.236641,0.251908,0.045802,-0.260254,-0.553223,0.771484,0.00,0.00,0.00
580,-0.511450,0.442748,0.229008,-0.261230,-0.560547,0.769043,0.00,0.00,0.00
581,-0.458015,0.480916,0.229008,-0.266602,-0.553711,0.770264,0.00,0.00,0.00
582,-0.572519,0.656489,0.312977,-0.268555,-0.552979,0.767090,0.00,0.00,0.00
583,-0.824427,0.679389,0.450382,-0.265869,-0.559814,0.762939,0.00,0.00,0.00
584,-0.717557,0.763359,0.572519,-0.269775,-0.551514,0.769043,0.00,0.00,0.00
585,-0.816794,0.839695,0.396947,-0.282227,-0.557617,0.765381,0.00,0.00,0.00
586,-0.603053,0.702290,0.381679,-0.272217,-0.556641,0.764648,0.00,0.00,0.00
587,-0.671756,0.648855,0.496183,-0.273682,-0.550293,0.769043,0.00,0.00,0.00
588,-0.519084,0.503817,0.358779,-0.271973,-0.557129,0.766113,0.00,0.00,0.00
589,-0.595420,0.557252,0.351145,-0.271973,-0.555420,0.771973,0.00,0.00,0.00
590,-0.664122,0.488550,0.213740,-0.263672,-0.559570,0.770752,0.00,0.00,0.00
591,-0.702290,0.770992,0.297710,-0.262451,-0.557129,0.776367,0.00,0.00,0.00
592,-0.770992,0.679389,0.404580,-0.265869,-0.560547,0.771729,0.00,0.00,0.00
593,-0.809160,0.740458,0.328244,-0.267822,-0.554688,0.770020,0.00,0.00,0.00
594,-0.687023,0.740458,0.206107,-0.271973,-0.556641,0.772705,0.00,0.00,0.00
595,-0.595420,0.603053,0.282443,-0.263916,-0.560059,0.768311,0.00,0.00,0.00
596,-0.709924,0.519084,0.358779,-0.275391,-0.555908,0.767578,0.00,0.00,0.00
597,-0.656489,0.442748,0.374046,-0.271973,-0.560059,0.764648,0.00,0.00,0.00
598,-0.656489,0.832061,0.511450,-0.272461,-0.558594,0.771240,0.00,0.00,0.00
599,-0.595420,0.885496,0.259542,-0.280273,-0.553955,0.763184,0.00,0.00,0.00
600,-0.511450,0.732824,0.274809,-0.273193,-0.559814,0.760986,0.00,0.00,0.00
601,-0.641221,0.694656,0.297710,-0.269531,-0.558838,0.771240,0.00,0.00,0.00
602,-0.610687,0.839695,0.259542,-0.268311,-0.558350,0.763672,0.00,0.00,0.00
603,-0.763359,0.809160,0.213740,-0.277344,-0.561523,0.762207,0.00,0.00,0.00
604,-0.664122,0.885496,0.450382,-0.275146,-0.554932,0.768311,0.00,0.00,0.00
605,-0.641221,0.847328,0.328244,-0.274902,-0.559326,0.768555,0.00,0.00,0.00
606,-0.427481,0.671756,0.106870,-0.270020,-0.553467,0.774414,0.00,0.00,0.00
607,-0.519084,0.549618,0.236641,-0.262939,-0.554443,0.762939,0.00,0.00,0.00
608,-0.480916,0.450382,0.145038,-0.274902,-0.556885,0.772461,0.00,0.00,0.00
609,-0.496183,0.511450,0.083969,-0.269287,-0.555420,0.768311,0.00,0.00,0.00
610,-0.564885,0.435115,0.190840,-0.268066,-0.555176,0.765869,0.00,0.00,0.00
611,-0.687023,0.648855,0.366412,-0.267090,-0.560059,0.771484,0.00,0.00,0.00
612,-0.702290,0.732824,0.244275,-0.275391,-0.558350,0.768799,0.00,0.00,0.00
613,-0.839695,0.580153,0.297710,-0.272217,-0.554199,0.763672,0.00,0.00,0.00
614,-0.893130,0.786260,0.312977,-0.271240,-0.562988,0.758789,0.00,0.00,0.00
615,-0.839695,0.580153,0.320611,-0.280273,-0.562988,0.761963,0.00,0.00,0.00
616,-0.908397,0.580153,0.335878,-0.268555,-0.557373,0.769775,0.00,0.00,0.00
617,-0.656489,0.557252,0.282443,-0.278076,-0.555908,0.768555,0.00,0.00,0.00
618,-0.694656,0.427481,0.198473,-0.272217,-0.557129,0.759521,0.00,0.00,0.00
619,-0.694656,0.549618,0.145038,-0.277832,-0.557861,0.770752,0.00,0.00,0.00
620,-0.488550,0.381679,0.083969,-0.277100,-0.554443,0.771484,0.00,0.00,0.00
621,-0.381679,0.312977,0.000000,-0.277100,-0.557129,0.770996,0.00,0.00,0.00
622,-0.519084,0.328244,0.015267,-0.273438,-0.562500,0.769531,0.00,0.00,0.00
623,-0.435115,0.282443,0.083969,-0.275391,-0.558350,0.763916,0.00,0.00,0.00
624,-0.427481,0.297710,0.030534,-0.271240,-0.556396,0.761719,0.00,0.00,0.00
625,-0.312977,0.282443,-0.015267,-0.271484,-0.556885,0.760742,0.00,0.00,0.00
626,-0.305344,0.381679,-0.053435,-0.276123,-0.558594,0.763916,0.00,0.00,0.00
627,-0.328244,0.274809,0.022901,-0.268799,-0.554443,0.761230,0.00,0.00,0.00
628,-0.267176,0.473282,0.106870,-0.273682,-0.557617,0.772949,0.00,0.00,0.00
629,-0.221374,0.259542,0.007634,-0.279053,-0.556885,0.763672,0.00,0.00,0.00
630,-0.274809,0.007634,-0.137405,-0.274170,-0.559570,0.765381,0.00,0.00,0.00
631,-0.305344,0.030534,-0.190840,-0.273682,-0.556152,0.768799,0.00,0.00,0.00
632,-0.152672,0.053435,-0.206107,-0.261230,-0.556641,0.770020,0.00,0.00,0.00
633,-0.213740,0.030534,-0.068702,-0.259766,-0.561279,0.767334,0.00,0.00,0.00
634,-0.213740,0.221374,0.030534,-0.272705,-0.561523,0.767578,0.00,0.00,0.00
635,-0.351145,0.389313,0.038168,-0.265625,-0.553467,0.765137,0.00,0.00,0.00
636,-0.488550,0.366412,0.236641,-0.270020,-0.555664,0.768311,0.00,0.00,0.00
637,-0.427481,0.656489,0.167939,-0.264648,-0.559326,0.764893,0.00,0.00,0.00
638,-0.435115,0.755725,0.274809,-0.277588,-0.555176,0.758789,0.00,0.00,0.00
639,-0.389313,0.992366,0.320611,-0.276611,-0.556152,0.767090,0.00,0.00,0.00
640,-0.358779,0.870229,0.442748,-0.272461,-0.561523,0.765381,0.00,0.00,0.00
641,-0.076336,0.832061,0.404580,-0.278809,-0.553711,0.758057,0.00,0.00,0.00
642,-0.030534,0.755725,0.229008,-0.278320,-0.558105,0.766846,0.00,0.00,0.00
643,0.083969,0.511450,0.213740,-0.280518,-0.556885,0.761719,0.00,0.00,0.00
644,0.190840,0.511450,0.099237,-0.276611,-0.554199,0.761475,0.00,0.00,0.00
645,0.450382,0.435115,0.076336,-0.273438,-0.551270,0.768311,0.00,0.00,0.00
646,0.671756,0.702290,0.030534,-0.278564,-0.555176,0.760498,0.00,0.00,0.00
647,0.648855,0.801527,-0.137405,-0.274170,-0.554443,0.771240,0.00,0.00,0.00
648,0.755725,0.854962,0.015267,-0.275146,-0.554199,0.768066,0.00,0.00,0.00
649,0.870229,1.015267,0.038168,-0.282471,-0.556396,0.761719,0.00,0.00,0.00
650,0.725191,1.160305,0.106870,-0.277588,-0.554199,0.770996,0.00,0.00,0.00
651,0.748092,1.343511,0.236641,-0.267334,-0.557373,0.769287,0.00,0.00,0.00
652,0.564885,1.496183,0.297710,-0.273682,-0.557617,0.767334,0.00,0.00,0.00
653,0.702290,1.671756,0.366412,-0.270264,-0.558594,0.772217,0.00,0.00,0.00
654,0.679389,1.839695,0.419847,-0.267090,-0.554443,0.760986,0.00,0.00,0.00
655,0.839695,1.839695,0.488550,-0.276611,-0.558594,0.763428,0.00,0.00,0.00
656,0.679389,1.870229,0.450382,-0.276611,-0.548828,0.767822,0.00,0.00,0.00
657,0.572519,1.961832,0.572519,-0.277100,-0.558350,0.763672,0.00,0.00,0.00
658,0.541985,1.770992,0.503817,-0.269531,-0.553711,0.756592,0.00,0.00,0.00
659,0.618321,1.832061,0.625954,-0.281006,-0.548340,0.780762,0.00,0.00,0.00
660,0.557252,2.038168,0.480916,-0.271729,-0.547852,0.774414,0.00,0.00,0.00
661,0.290076,2.198473,0.541985,-0.272217,-0.558350,0.770264,0.00,0.00,0.00
662,0.190840,2.648855,0.847328,-0.274414,-0.556641,0.770752,0.00,0.00,0.00
663,0.015267,2.664122,0.679389,-0.274170,-0.558105,0.772461,0.00,0.00,0.00
664,-0.190840,2.656489,0.839695,-0.277100,-0.559570,0.768799,0.00,0.00,0.00
665,-0.244275,2.877863,1.000000,-0.276611,-0.558838,0.763184,0.00,0.00,0.00
666,-0.305344,2.885496,0.900763,-0.268311,-0.555908,0.768066,0.00,0.00,0.00
667,-0.320611,2.854962,1.160305,-0.275879,-0.557861,0.761230,0.00,0.00,0.00
668,-0.549618,2.854962,0.954198,-0.284180,-0.559814,0.763672,0.00,0.00,0.00
669,-0.587786,2.816794,1.045802,-0.274658,-0.555908,0.767334,0.00,0.00,0.00
670,-0.595420,2.679389,0.992366,-0.277832,-0.555664,0.769531,0.00,0.00,0.00
671,-0.557252,2.687023,1.022901,-0.277100,-0.561035,0.759277,0.00,0.00,0.00
672,-0.618321,2.343511,0.893130,-0.273438,-0.554688,0.770508,0.00,0.00,0.00
673,-0.511450,2.312977,0.885496,-0.270996,-0.557861,0.764404,0.00,0.00,0.00
674,-0.587786,2.335878,0.900763,-0.265381,-0.558105,0.768066,0.00,0.00,0.00
675,-0.625954,2.282443,0.732824,-0.271484,-0.556152,0.768799,0.00,0.00,0.00
676,-0.488550,2.312977,0.977099,-0.275146,-0.562012,0.763428,0.00,0.00,0.00
677,-0.740458,2.297710,1.053435,-0.272949,-0.557861,0.764648,0.00,0.00,0.00
678,-0.595420,2.160305,1.022901,-0.281738,-0.556641,0.770020,0.00,0.00,0.00
679,-0.641221,2.061069,0.793893,-0.278809,-0.553467,0.771729,0.00,0.00,0.00
680,-0.519084,1.893130,0.923664,-0.284424,-0.561035,0.762695,0.00,0.00,0.00
681,-0.526718,1.931298,0.877863,-0.288086,-0.560791,0.781250,0.00,0.00,0.00
682,-0.389313,1.618321,0.732824,-0.287109,-0.559082,0.771729,0.00,0.00,0.00
683,-0.343511,1.595420,0.595420,-0.278809,-0.555176,0.756104,0.00,0.00,0.00
684,-0.229008,1.351145,0.534351,-0.281738,-0.552734,0.762695,0.00,0.00,0.00
685,-0.053435,1.244275,0.526718,-0.290283,-0.556152,0.765869,0.00,0.00,0.00
686,-0.129771,1.244275,0.297710,-0.281006,-0.553955,0.767090,0.00,0.00,0.00
687,-0.099237,1.541985,0.641221,-0.278564,-0.557129,0.773682,0.00,0.00,0.00
688,-0.145038,1.450382,0.496183,-0.281738,-0.552734,0.761230,0.00,0.00,0.00
689,-0.114504,1.534351,0.366412,-0.280518,-0.556885,0.758301,0.00,0.00,0.00
690,-0.091603,1.435115,0.549618,-0.287354,-0.555908,0.757080,0.00,0.00,0.00
691,-0.160305,1.648855,0.473282,-0.277344,-0.556885,0.768066,0.00,0.00,0.00
692,-0.206107,1.603053,0.412214,-0.274170,-0.555908,0.756348,0.00,0.00,0.00
693,-0.183206,1.526718,0.564885,-0.292236,-0.557861,0.767334,0.00,0.00,0.00
694,-0.206107,1.633588,0.511450,-0.290039,-0.557129,0.768311,0.00,0.00,0.00
695,-0.083969,1.595420,0.412214,-0.274658,-0.561035,0.775391,0.00,0.00,0.00
696,-0.244275,1.770992,0.534351,-0.281250,-0.556641,0.756592,0.00,0.00,0.00
697,-0.320611,1.580153,0.549618,-0.284668,-0.554199,0.758301,0.00,0.00,0.00
698,-0.091603,1.702290,0.641221,-0.279053,-0.557373,0.758057,0.00,0.00,0.00
699,-0.274809,1.656489,0.343511,-0.280762,-0.548340,0.750000,0.00,0.00,0.00
700,-0.244275,1.633588,0.290076,-0.283203,-0.553955,0.760986,0.00,0.00,0.00
701,-0.206107,1.587786,0.442748,-0.277832,-0.562012,0.768311,0.00,0.00,0.00
702,-0.297710,1.671756,0.366412,-0.274902,-0.556641,0.765381,0.00,0.00,0.00
703,-0.282443,1.816794,0.580153,-0.281494,-0.557861,0.754639,0.00,0.00,0.00
704,-0.396947,1.770992,0.526718,-0.276611,-0.559570,0.771240,0.00,0.00,0.00
705,-0.305344,1.633588,0.572519,-0.281738,-0.556152,0.759521,0.00,0.00,0.00
706,-0.366412,1.687023,0.458015,-0.284668,-0.557617,0.773682,0.00,0.00,0.00
707,-0.702290,1.679389,0.572519,-0.281982,-0.552734,0.765869,0.00,0.00,0.00
708,-0.549618,1.877863,0.648855,-0.287109,-0.560059,0.759766,0.00,0.00,0.00
709,-0.419847,1.625954,0.534351,-0.281982,-0.560791,0.767578,0.00,0.00,0.00
710,-0.541985,1.931298,0.641221,-0.275391,-0.562256,0.768799,0.00,0.00,0.00
711,-0.793893,1.862595,0.618321,-0.285889,-0.557861,0.767822,0.00,0.00,0.00
712,-0.618321,1.763359,0.603053,-0.278320,-0.558838,0.759277,0.00,0.00,0.00
713,-0.847328,1.801527,0.732824,-0.279785,-0.555420,0.765381,0.00,0.00,0.00
714,-0.984733,1.923664,0.748092,-0.281738,-0.555176,0.761963,0.00,0.00,0.00
715,-0.854962,2.068702,0.687023,-0.277832,-0.559570,0.756104,0.00,0.00,0.00
716,-1.152672,2.122137,0.916031,-0.278809,-0.561035,0.759521,0.00,0.00,0.00
717,-1.038168,2.068702,0.801527,-0.281738,-0.553955,0.752197,0.00,0.00,0.00
718,-1.152672,2.129771,0.755725,-0.279053,-0.562012,0.761963,0.00,0.00,0.00
719,-0.977099,2.053435,0.755725,-0.287842,-0.561279,0.757080,0.00,0.00,0.00
720,-0.725191,1.977099,0.748092,-0.287354,-0.561768,0.766357,0.00,0.00,0.00
721,-0.839695,1.954198,0.633588,-0.287354,-0.558350,0.753418,0.00,0.00,0.00
722,-0.725191,1.671756,0.473282,-0.285400,-0.562744,0.760010,0.00,0.00,0.00
723,-0.610687,1.480916,0.526718,-0.290771,-0.556885,0.752930,0.00,0.00,0.00
724,-0.687023,1.419847,0.526718,-0.284180,-0.551270,0.772217,0.00,0.00,0.00
725,-0.625954,1.435115,0.610687,-0.287354,-0.558838,0.766113,0.00,0.00,0.00
726,-0.595420,1.450382,0.458015,-0.287109,-0.562500,0.768555,0.00,0.00,0.00
727,-0.603053,1.343511,0.404580,-0.286133,-0.562988,0.754639,0.00,0.00,0.00
728,-0.374046,1.229008,0.534351,-0.285156,-0.556396,0.765869,0.00,0.00,0.00
729,-0.587786,1.145038,0.595420,-0.286133,-0.552979,0.754639,0.00,0.00,0.00
730,-0.641221,1.183206,0.519084,-0.281250,-0.561523,0.763672,0.00,0.00,0.00
731,-0.717557,0.931298,0.519084,-0.288818,-0.558594,0.758789,0.00,0.00,0.00
732,-0.549618,1.061069,0.580153,-0.290039,-0.562988,0.768066,0.00,0.00,0.00
733,-0.496183,1.000000,0.389313,-0.292725,-0.559570,0.757080,0.00,0.00,0.00
734,-0.511450,0.809160,0.366412,-0.293213,-0.559814,0.761963,0.00,0.00,0.00
735,-0.465649,0.580153,0.335878,-0.283203,-0.562988,0.770752,0.00,0.00,0.00
736,-0.290076,0.625954,0.412214,-0.296143,-0.559570,0.755859,0.00,0.00,0.00
737,-0.236641,0.572519,0.137405,-0.286621,-0.555420,0.758789,0.00,0.00,0.00
738,-0.175573,0.541985,0.183206,-0.288086,-0.558838,0.761719,0.00,0.00,0.00
739,-0.183206,0.435115,-0.083969,-0.286377,-0.561523,0.764893,0.00,0.00,0.00
740,-0.106870,0.320611,-0.053435,-0.287842,-0.555176,0.749756,0.00,0.00,0.00
741,-0.007634,0.282443,-0.038168,-0.291748,-0.556885,0.759277,0.00,0.00,0.00
742,-0.015267,0.022901,-0.061069,-0.287598,-0.557861,0.763428,0.00,0.00,0.00
743,0.000000,0.114504,-0.030534,-0.289062,-0.564697,0.760254,0.00,0.00,0.00
744,0.145038,0.007634,-0.167939,-0.292236,-0.553467,0.756104,0.00,0.00,0.00
745,0.091603,0.030534,-0.030534,-0.283447,-0.557617,0.765869,0.00,0.00,0.00
746,0.099237,-0.122137,-0.068702,-0.290771,-0.560059,0.766846,0.00,0.00,0.00
747,0.015267,-0.007634,-0.083969,-0.288818,-0.559082,0.763672,0.00,0.00,0.00
748,0.038168,-0.167939,-0.190840,-0.291748,-0.557617,0.748291,0.00,0.00,0.00
749,0.045802,0.000000,-0.152672,-0.291748,-0.563232,0.764648,0.00,0.00,0.00
750,0.129771,0.015267,-0.114504,-0.289795,-0.560059,0.767578,0.00,0.00,0.00
751,0.145038,-0.015267,-0.190840,-0.291260,-0.558350,0.763672,0.00,0.00,0.00
752,0.198473,-0.267176,-0.175573,-0.292725,-0.559570,0.751953,0.00,0.00,0.00
753,0.152672,-0.129771,-0.236641,-0.291260,-0.558838,0.766846,0.00,0.00,0.00
754,0.083969,-0.282443,-0.236641,-0.289795,-0.556396,0.764160,0.00,0.00,0.00
755,0.061069,-0.335878,-0.282443,-0.290527,-0.554443,0.759277,0.00,0.00,0.00
756,0.152672,-0.305344,-0.206107,-0.290771,-0.555176,0.765137,0.00,0.00,0.00
757,0.122137,-0.374046,-0.229008,-0.288086,-0.561279,0.761230,0.00,0.00,0.00
758,0.099237,-0.519084,-0.213740,-0.290283,-0.558594,0.760010,0.00,0.00,0.00
759,0.145038,-0.564885,-0.381679,-0.288330,-0.558350,0.753662,0.00,0.00,0.00
760,0.335878,-0.770992,-0.267176,-0.282715,-0.561768,0.755127,0.00,0.00,0.00
761,0.259542,-0.671756,-0.351145,-0.286377,-0.554443,0.758301,0.00,0.00,0.00
762,0.076336,-0.900763,-0.427481,-0.284668,-0.553955,0.745117,0.00,0.00,0.00
763,0.320611,-0.732824,-0.442748,-0.278564,-0.556885,0.759521,0.00,0.00,0.00
764,0.114504,-0.854962,-0.274809,-0.285400,-0.561768,0.757568,0.00,0.00,0.00
765,0.236641,-0.923664,-0.236641,-0.284912,-0.564209,0.760742,0.00,0.00,0.00
766,0.229008,-0.931298,-0.244275,-0.289307,-0.556885,0.759521,0.00,0.00,0.00
767,0.099237,-0.916031,-0.236641,-0.288330,-0.562012,0.756592,0.00,0.00,0.00
768,0.129771,-0.816794,-0.229008,-0.284424,-0.555664,0.765869,0.00,0.00,0.00
769,0.114504,-0.877863,-0.160305,-0.292480,-0.559814,0.750732,0.00,0.00,0.00
770,0.053435,-0.984733,-0.267176,-0.290283,-0.559570,0.760986,0.00,0.00,0.00
771,0.030534,-1.007634,-0.282443,-0.290283,-0.550537,0.754639,0.00,0.00,0.00
772,-0.038168,-1.007634,-0.396947,-0.290771,-0.554688,0.760986,0.00,0.00,0.00
773,-0.076336,-1.213740,-0.320611,-0.289551,-0.557129,0.764160,0.00,0.00,0.00
774,0.030534,-0.992366,-0.274809,-0.282471,-0.558838,0.764893,0.00,0.00,0.00
775,-0.175573,-0.931298,-0.267176,-0.283203,-0.555908,0.762939,0.00,0.00,0.00
776,-0.053435,-1.045802,-0.190840,-0.291992,-0.562256,0.764404,0.00,0.00,0.00
777,-0.206107,-0.847328,-0.221374,-0.285889,-0.562012,0.759521,0.00,0.00,0.00
778,-0.259542,-0.961832,-0.183206,-0.283203,-0.557861,0.757568,0.00,0.00,0.00
779,-0.106870,-0.839695,-0.236641,-0.291016,-0.557617,0.758301,0.00,0.00,0.00
780,-0.396947,-1.045802,-0.167939,-0.278809,-0.559082,0.766846,0.00,0.00,0.00
781,-0.435115,-1.030534,-0.259542,-0.283447,-0.561279,0.772949,0.00,0.00,0.00
782,-0.740458,-0.778626,-0.083969,-0.270996,-0.557373,0.773438,0.00,0.00,0.00
783,-0.885496,-0.656489,0.045802,-0.283447,-0.562500,0.770996,0.00,0.00,0.00
784,-0.954198,-0.679389,0.137405,-0.287354,-0.558594,0.770752,0.00,0.00,0.00
785,-1.175573,-0.564885,0.091603,-0.284424,-0.553711,0.756348,0.00,0.00,0.00
786,-1.366412,-0.488550,0.297710,-0.283203,-0.557861,0.761719,0.00,0.00,0.00
787,-1.167939,-0.381679,0.190840,-0.286621,-0.560791,0.762939,0.00,0.00,0.00
788,-1.351145,-0.488550,0.076336,-0.286377,-0.558594,0.761230,0.00,0.00,0.00
789,-1.236641,-0.511450,0.274809,-0.286377,-0.558594,0.760254,0.00,0.00,0.00
790,-1.106870,-0.343511,0.114504,-0.280762,-0.561768,0.767822,0.00,0.00,0.00
791,-1.297710,-0.427481,0.381679,-0.281494,-0.556641,0.767822,0.00,0.00,0.00
792,-1.366412,-0.541985,0.244275,-0.277588,-0.558350,0.766846,0.00,0.00,0.00
793,-1.427481,-0.152672,0.404580,-0.273193,-0.553711,0.759521,0.00,0.00,0.00
794,-1.519084,-0.229008,0.595420,-0.285889,-0.556885,0.758545,0.00,0.00,0.00
795,-1.473282,0.007634,0.549618,-0.294922,-0.556885,0.769287,0.00,0.00,0.00
796,-1.618321,0.129771,0.603053,-0.289795,-0.561279,0.752197,0.00,0.00,0.00
797,-1.396947,0.038168,0.419847,-0.285889,-0.558105,0.761475,0.00,0.00,0.00
798,-1.320611,-0.122137,0.251908,-0.290527,-0.557861,0.758545,0.00,0.00,0.00
799,-1.137405,-0.236641,0.274809,-0.290039,-0.554688,0.755615,0.00,0.00,0.00
800,-0.748092,-0.419847,0.251908,-0.299072,-0.551270,0.760010,0.00,0.00,0.00
801,-0.587786,-0.580153,-0.053435,-0.289551,-0.558594,0.765137,0.00,0.00,0.00
802,-0.259542,-0.732824,-0.206107,-0.291992,-0.557861,0.762451,0.00,0.00,0.00
803,0.022901,-0.610687,-0.190840,-0.288086,-0.563721,0.759521,0.00,0.00,0.00
804,0.053435,-0.625954,-0.152672,-0.286133,-0.561768,0.759277,0.00,0.00,0.00
805,0.221374,-0.725191,-0.137405,-0.288330,-0.553467,0.753174,0.00,0.00,0.00
806,0.221374,-0.603053,-0.083969,-0.282227,-0.560791,0.754395,0.00,0.00,0.00
807,0.045802,-0.664122,-0.358779,-0.279297,-0.559570,0.766846,0.00,0.00,0.00
808,0.190840,-0.832061,-0.236641,-0.283447,-0.559082,0.756592,0.00,0.00,0.00
809,0.129771,-0.633588,-0.290076,-0.288818,-0.558105,0.761963,0.00,0.00,0.00
810,0.114504,-0.572519,-0.175573,-0.289062,-0.555664,0.754883,0.00,0.00,0.00
811,0.145038,-0.587786,-0.290076,-0.287109,-0.555908,0.757812,0.00,0.00,0.00
812,0.114504,-0.557252,-0.129771,-0.288574,-0.560303,0.762695,0.00,0.00,0.00
813,0.190840,-0.610687,-0.236641,-0.277100,-0.557373,0.763672,0.00,0.00,0.00
814,0.221374,-0.694656,-0.160305,-0.290039,-0.557861,0.757080,0.00,0.00,0.00
815,0.351145,-0.847328,-0.259542,-0.279785,-0.561768,0.760010,0.00,0.00,0.00
816,0.206107,-0.748092,-0.022901,-0.282227,-0.558105,0.755859,0.00,0.00,0.00
817,0.236641,-0.778626,-0.167939,-0.285400,-0.563477,0.752686,0.00,0.00,0.00
818,0.099237,-0.809160,-0.152672,-0.284912,-0.560059,0.755127,0.00,0.00,0.00
819,0.076336,-0.625954,-0.099237,-0.289307,-0.562988,0.751953,0.00,0.00,0.00
820,0.068702,-0.877863,-0.053435,-0.282959,-0.552490,0.751221,0.00,0.00,0.00
821,0.290076,-0.923664,-0.137405,-0.278076,-0.560547,0.761963,0.00,0.00,0.00
822,0.152672,-0.916031,-0.167939,-0.277832,-0.563477,0.759766,0.00,0.00,0.00
823,0.122137,-0.755725,-0.137405,-0.274658,-0.564453,0.768311,0.00,0.00,0.00
824,-0.045802,-0.801527,0.137405,-0.279541,-0.561768,0.762695,0.00,0.00,0.00
825,-0.190840,-0.534351,0.106870,-0.280518,-0.558594,0.757812,0.00,0.00,0.00
826,-0.221374,-0.282443,0.297710,-0.275146,-0.557617,0.765869,0.00,0.00,0.00
827,-0.480916,-0.259542,0.435115,-0.271484,-0.558838,0.769043,0.00,0.00,0.00
828,-0.557252,0.030534,0.519084,-0.276123,-0.558594,0.770508,0.00,0.00,0.00
829,-0.664122,0.175573,0.618321,-0.278076,-0.555420,0.766113,0.00,0.00,0.00
830,-0.763359,0.328244,0.748092,-0.285156,-0.556152,0.757568,0.00,0.00,0.00
831,-0.923664,0.511450,0.877863,-0.283203,-0.558838,0.754150,0.00,0.00,0.00
832,-0.709924,0.435115,0.916031,-0.291260,-0.558594,0.753662,0.00,0.00,0.00
833,-0.763359,0.335878,0.931298,-0.285156,-0.559082,0.765869,0.00,0.00,0.00
834,-0.694656,0.320611,0.816794,-0.278564,-0.558350,0.761963,0.00,0.00,0.00
835,-0.664122,0.251908,0.854962,-0.271240,-0.561035,0.756348,0.00,0.00,0.00
836,-0.641221,0.511450,0.931298,-0.274658,-0.565674,0.770020,0.00,0.00,0.00
837,-0.656489,0.633588,1.106870,-0.275635,-0.562256,0.766113,0.00,0.00,0.00
838,-0.862595,0.755725,1.282443,-0.272949,-0.560059,0.761719,0.00,0.00,0.00
839,-0.938931,0.740458,1.305344,-0.278076,-0.561768,0.765625,0.00,0.00,0.00
840,-0.824427,0.778626,1.320611,-0.280273,-0.561035,0.761230,0.00,0.00,0.00
841,-0.702290,0.877863,1.244275,-0.283447,-0.556152,0.761230,0.00,0.00,0.00
842,-0.664122,0.969466,1.076336,-0.287842,-0.557617,0.758057,0.00,0.00,0.00
843,-0.610687,0.832061,1.045802,-0.286377,-0.561768,0.756348,0.00,0.00,0.00
844,-0.526718,0.770992,0.916031,-0.297852,-0.554443,0.755371,0.00,0.00,0.00
845,-0.236641,0.610687,0.885496,-0.298828,-0.560303,0.750977,0.00,0.00,0.00
846,-0.358779,0.351145,0.832061,-0.287842,-0.556152,0.754150,0.00,0.00,0.00
847,-0.015267,0.396947,0.625954,-0.298340,-0.558594,0.753418,0.00,0.00,0.00
848,0.236641,0.099237,0.328244,-0.297119,-0.560303,0.750000,0.00,0.00,0.00
849,0.267176,-0.167939,0.282443,-0.300293,-0.557129,0.759033,0.00,0.00,0.00
850,0.442748,-0.396947,0.251908,-0.301270,-0.561279,0.740479,0.00,0.00,0.00
851,0.587786,-0.595420,0.198473,-0.289062,-0.562988,0.763916,0.00,0.00,0.00
852,0.511450,-0.496183,0.076336,-0.286133,-0.559326,0.758057,0.00,0.00,0.00
853,0.595420,-0.374046,0.114504,-0.283691,-0.555664,0.763672,0.00,0.00,0.00
854,0.541985,-0.358779,0.190840,-0.287598,-0.565430,0.770752,0.00,0.00,0.00
855,0.465649,-0.374046,0.167939,-0.299316,-0.563721,0.759521,0.00,0.00,0.00
856,0.618321,-0.244275,0.244275,-0.294922,-0.561279,0.754150,0.00,0.00,0.00
857,0.778626,-0.251908,0.076336,-0.286133,-0.558838,0.752197,0.00,0.00,0.00
858,0.748092,-0.297710,-0.114504,-0.285645,-0.553955,0.758789,0.00,0.00,0.00
859,0.847328,-0.229008,0.015267,-0.293701,-0.559570,0.761230,0.00,0.00,0.00
860,0.786260,-0.244275,-0.038168,-0.291504,-0.559570,0.766602,0.00,0.00,0.00
861,0.786260,-0.145038,0.099237,-0.286133,-0.550537,0.764648,0.00,0.00,0.00
862,0.511450,-0.030534,0.183206,-0.276611,-0.557129,0.763428,0.00,0.00,0.00
863,0.511450,0.198473,0.312977,-0.281738,-0.560303,0.765869,0.00,0.00,0.00
864,0.404580,0.206107,0.221374,-0.282471,-0.555664,0.767090,0.00,0.00,0.00
865,0.221374,0.282443,0.511450,-0.275635,-0.555908,0.760986,0.00,0.00,0.00
866,0.045802,0.465649,0.618321,-0.274658,-0.561768,0.756592,0.00,0.00,0.00
867,-0.061069,0.687023,0.656489,-0.280029,-0.557617,0.764404,0.00,0.00,0.00
868,-0.106870,1.030534,0.885496,-0.280518,-0.559570,0.755859,0.00,0.00,0.00
869,-0.381679,1.099237,0.847328,-0.282471,-0.555664,0.758301,0.00,0.00,0.00
870,-0.305344,1.320611,1.030534,-0.282715,-0.559326,0.757080,0.00,0.00,0.00
871,-0.312977,1.297710,0.946565,-0.292969,-0.561279,0.756104,0.00,0.00,0.00
872,-0.167939,1.320611,0.977099,-0.286621,-0.559082,0.756592,0.00,0.00,0.00
873,-0.183206,1.374046,1.061069,-0.289062,-0.557861,0.753418,0.00,0.00,0.00
874,-0.305344,1.290076,1.198473,-0.290771,-0.552002,0.760010,0.00,0.00,0.00
875,-0.320611,1.511450,1.236641,-0.285156,-0.562012,0.757812,0.00,0.00,0.00
876,-0.251908,1.610687,1.335878,-0.288818,-0.558105,0.756836,0.00,0.00,0.00
877,-0.358779,1.725191,1.259542,-0.288330,-0.562500,0.758789,0.00,0.00,0.00
878,-0.396947,1.893130,1.557252,-0.277344,-0.561279,0.762939,0.00,0.00,0.00
879,-0.595420,2.152672,1.572519,-0.280029,-0.560303,0.767578,0.00,0.00,0.00
880,-0.648855,2.358779,1.946565,-0.279541,-0.560303,0.770264,0.00,0.00,0.00
881,-0.641221,2.664122,2.145038,-0.289551,-0.559814,0.773926,0.00,0.00,0.00
882,-0.778626,2.885496,2.045802,-0.282715,-0.558594,0.766357,0.00,0.00,0.00
883,-0.763359,3.000000,2.320611,-0.281982,-0.564453,0.753662,0.00,0.00,0.00
884,-0.656489,3.061069,2.190840,-0.281738,-0.550781,0.754395,0.00,0.00,0.00
885,-0.473282,3.022901,2.175573,-0.294434,-0.551025,0.752930,0.00,0.00,0.00
886,-0.473282,2.725191,1.969466,-0.304443,-0.555908,0.747070,0.00,0.00,0.00
887,-0.190840,2.450382,1.969466,-0.299561,-0.553467,0.755127,0.00,0.00,0.00
888,0.076336,2.572519,1.801527,-0.292236,-0.554443,0.759277,0.00,0.00,0.00
889,0.183206,2.160305,1.671756,-0.294678,-0.557617,0.759766,0.00,0.00,0.00
890,0.251908,1.977099,1.564885,-0.296387,-0.552002,0.752441,0.00,0.00,0.00
891,0.503817,1.580153,1.557252,-0.297119,-0.556396,0.754395,0.00,0.00,0.00
892,0.610687,1.374046,1.335878,-0.300537,-0.556152,0.739014,0.00,0.00,0.00
893,1.045802,1.038168,1.137405,-0.302490,-0.557129,0.760498,0.00,0.00,0.00
894,1.045802,0.885496,0.992366,-0.295410,-0.556641,0.756348,0.00,0.00,0.00
895,0.854962,0.961832,0.931298,-0.288330,-0.554443,0.764893,0.00,0.00,0.00
896,0.595420,1.274809,1.190840,-0.289062,-0.555664,0.753906,0.00,0.00,0.00
897,0.679389,1.396947,1.206107,-0.281982,-0.554443,0.760010,0.00,0.00,0.00
898,0.580153,1.656489,1.290076,-0.286377,-0.552490,0.761963,0.00,0.00,0.00
899,0.526718,1.709924,1.290076,-0.291260,-0.550537,0.753174,0.00,0.00,0.00
900,0.572519,1.786260,1.343511,-0.300537,-0.554199,0.757812,0.00,0.00,0.00
901,0.442748,1.603053,1.320611,-0.302490,-0.555664,0.751221,0.00,0.00,0.00
902,0.801527,1.625954,1.091603,-0.300781,-0.554443,0.757324,0.00,0.00,0.00
903,1.000000,1.503817,1.053435,-0.308350,-0.558838,0.751221,0.00,0.00,0.00
904,0.824427,1.282443,0.992366,-0.303711,-0.557129,0.755371,0.00,0.00,0.00
905,1.000000,1.175573,0.908397,-0.294678,-0.564697,0.765137,0.00,0.00,0.00
906,1.236641,0.793893,0.694656,-0.302490,-0.549072,0.750000,0.00,0.00,0.00
907,1.473282,0.656489,0.465649,-0.300537,-0.554443,0.762451,0.00,0.00,0.00
908,1.541985,0.465649,0.580153,-0.298096,-0.560303,0.768311,0.00,0.00,0.00
909,1.572519,0.351145,0.572519,-0.303467,-0.555908,0.752686,0.00,0.00,0.00
910,1.587786,0.473282,0.603053,-0.300537,-0.554199,0.747314,0.00,0.00,0.00
911,1.679389,0.442748,0.496183,-0.289307,-0.557617,0.764648,0.00,0.00,0.00
912,1.694656,0.687023,0.366412,-0.290771,-0.559570,0.758301,0.00,0.00,0.00
913,1.511450,0.809160,0.740458,-0.293457,-0.550293,0.758301,0.00,0.00,0.00
914,1.465649,0.793893,0.748092,-0.298828,-0.553711,0.763184,0.00,0.00,0.00
915,1.465649,1.076336,0.732824,-0.291748,-0.547852,0.757324,0.00,0.00,0.00
916,1.404580,0.900763,0.656489,-0.291504,-0.556641,0.765137,0.00,0.00,0.00
917,1.595420,1.083969,0.778626,-0.298584,-0.550537,0.754639,0.00,0.00,0.00
918,1.229008,1.404580,0.931298,-0.279785,-0.558350,0.762207,0.00,0.00,0.00
919,0.992366,1.916031,1.160305,-0.274414,-0.558838,0.760498,0.00,0.00,0.00
920,0.969466,2.114504,1.419847,-0.290283,-0.553955,0.777100,0.00,0.00,0.00
921,0.572519,2.694656,1.541985,-0.278320,-0.558350,0.759766,0.00,0.00,0.00
922,0.709924,2.717557,1.862595,-0.289795,-0.558594,0.758057,0.00,0.00,0.00
923,0.625954,3.290076,2.007634,-0.288330,-0.554443,0.771729,0.00,0.00,0.00
924,0.282443,3.671756,2.274809,-0.288330,-0.558350,0.758545,0.00,0.00,0.00
925,-0.259542,4.183206,2.679389,-0.278564,-0.553223,0.776123,0.00,0.00,0.00
926,-0.648855,4.473282,2.839695,-0.290527,-0.551758,0.761963,0.00,0.00,0.00
927,-1.045802,4.717557,2.923664,-0.296631,-0.550293,0.763184,0.00,0.00,0.00
928,-0.938931,5.099237,3.206107,-0.289795,-0.559570,0.753906,0.00,0.00,0.00
929,-1.114504,4.793893,3.145038,-0.297363,-0.552734,0.757568,0.00,0.00,0.00
930,-0.984733,5.022901,3.129771,-0.301270,-0.557617,0.754639,0.00,0.00,0.00
931,-0.969466,4.931298,2.908397,-0.304932,-0.559326,0.750732,0.00,0.00,0.00
932,0.259542,4.847328,2.755725,-0.320068,-0.555664,0.751709,0.00,0.00,0.00
933,-0.427481,5.129771,2.824427,-0.304199,-0.565918,0.742188,0.00,0.00,0.00
934,-0.732824,4.938931,2.954198,-0.310791,-0.546631,0.760254,0.00,0.00,0.00
935,-1.259542,5.030534,2.969466,-0.323242,-0.560303,0.755615,0.00,0.00,0.00
936,-0.916031,4.839695,2.755725,-0.318115,-0.556152,0.759277,0.00,0.00,0.00
937,-0.847328,4.740458,2.717557,-0.327881,-0.553467,0.760986,0.00,0.00,0.00
938,-1.129771,4.343511,2.656489,-0.307129,-0.553223,0.774658,0.00,0.00,0.00
939,-2.129771,4.282443,2.335878,-0.297363,-0.552246,0.777832,0.00,0.00,0.00
940,-2.625954,4.343511,2.709924,-0.287842,-0.556396,0.788330,0.00,0.00,0.00
941,-4.351145,4.755725,2.732824,-0.275879,-0.548584,0.803711,0.00,0.00,0.00
942,-6.610687,5.305344,3.419847,-0.268555,-0.554443,0.811035,0.00,0.00,0.00
943,-8.549618,4.893130,2.564885,-0.283203,-0.519043,0.811035,0.00,0.00,0.00
944,-12.786260,3.854962,1.854962,-0.273926,-0.524658,0.861816,0.00,0.00,0.00
945,-17.809160,4.740458,0.854962,-0.312500,-0.509277,0.898926,0.00,0.00,0.00
946,-23.000000,6.335878,-1.068702,-0.353516,-0.476807,0.919189,0.00,0.00,0.00
947,-32.229008,7.801527,-3.465649,-0.393555,-0.496338,0.977539,0.00,0.00,0.00
948,-43.580153,7.167939,-6.152672,-0.471924,-0.447998,1.007812,0.00,0.00,0.00
949,-59.954198,10.091603,-10.488550,-0.547119,-0.331787,1.172363,0.00,0.00,0.00
950,-79.473282,15.633588,-20.564885,-0.667236,-0.142578,1.381104,0.00,0.00,0.00
951,-107.534351,15.931298,-37.068702,-0.960449,-0.042969,1.521973,0.00,0.00,0.00
952,-138.618321,17.381679,-54.770992,-1.048584,0.021973,1.562744,0.00,0.00,0.00
953,-171.053435,18.832061,-71.244275,-1.125244,-0.137695,1.555664,0.00,0.00,0.00
954,-190.870229,15.961832,-87.114504,-1.180908,-0.262451,1.595215,0.00,0.00,0.00
955,-220.114504,7.083969,-110.503817,-1.082520,-0.356445,1.614258,0.00,0.00,0.00
956,-246.809160,-0.671756,-136.419847,-1.028564,-0.414551,1.601562,0.00,0.00,0.00
957,-250.137405,-3.603053,-165.465649,-0.869141,-0.502686,1.470215,0.00,0.00,0.00
958,-250.137405,2.183206,-187.305344,-0.636719,-0.635742,1.408203,0.00,0.00,0.00
959,-250.137405,7.862595,-204.526718,-0.875244,-0.727783,1.416504,0.00,0.00,0.00
960,-250.137405,8.473282,-212.343511,-1.066162,-0.902100,1.417725,0.00,0.00,0.00
961,-250.137405,12.648855,-213.778626,-1.316406,-1.185303,1.272461,0.00,0.00,0.00
962,-250.137405,3.045802,-214.748092,-1.524414,-1.578613,1.393799,0.00,0.00,0.00
963,-250.137405,-9.648855,-215.893130,-1.617188,-1.707520,1.353760,0.00,0.00,0.00
964,-227.664122,-35.740458,-225.030534,-1.905762,-1.744629,1.292969,0.00,0.00,0.00
965,-203.000000,-84.961832,-241.396947,-2.000000,-1.304688,1.249756,0.00,0.00,0.00
966,-183.847328,-127.267176,-250.137405,-2.000000,-0.852783,1.311279,0.00,0.00,0.00
967,-166.893130,-165.763359,-236.603053,-1.852539,-0.493408,1.403076,0.00,0.00,0.00
968,-151.419847,-191.129771,-201.358779,-1.687744,-0.215332,1.344482,0.00,0.00,0.00
969,-135.954198,-204.755725,-154.145038,-1.584229,0.154297,1.330566,0.00,0.00,0.00
970,-128.045802,-202.725191,-89.977099,-1.356201,0.748535,1.233887,0.00,0.00,0.00
971,-130.908397,-184.717557,-33.396947,-1.049072,0.868408,1.090332,0.00,0.00,0.00
972,-137.320611,-134.160305,29.427481,-0.455566,0.193115,0.989014,0.00,0.00,0.00
973,-106.366412,-92.572519,90.541985,-0.417236,0.327637,1.099609,0.00,0.00,0.00
974,-86.435115,-44.946565,145.893130,-0.425781,0.752930,1.168945,0.00,0.00,0.00
975,-78.633588,-13.335878,181.839695,-0.617188,0.895752,1.012695,0.00,0.00,0.00
976,-73.221374,1.412214,205.961832,-0.787598,1.007324,0.969727,0.00,0.00,0.00
977,-70.358779,3.793893,217.610687,-0.880615,1.105957,0.923584,0.00,0.00,0.00
978,-71.068702,-1.099237,221.236641,-0.871582,1.123779,0.908203,0.00,0.00,0.00
979,-69.992366,-10.160305,219.923664,-0.744629,1.006592,0.900879,0.00,0.00,0.00
980,-64.992366,-14.099237,217.656489,-0.592773,0.885498,0.906494,0.00,0.00,0.00
981,-54.862595,-16.030534,214.496183,-0.422119,0.720703,0.932617,0.00,0.00,0.00
982,-39.854962,-12.015267,211.206107,-0.286865,0.558105,0.938965,0.00,0.00,0.00
983,-19.198473,-7.854962,205.969466,-0.224854,0.403564,0.969727,0.00,0.00,0.00
984,3.099237,-4.862595,198.061069,-0.211914,0.286621,1.010498,0.00,0.00,0.00
985,27.206107,-2.900763,187.862595,-0.217041,0.184326,1.034668,0.00,0.00,0.00
986,52.038168,-4.221374,176.083969,-0.235352,0.066650,1.080322,0.00,0.00,0.00
987,76.267176,-7.213740,162.984733,-0.248779,-0.007324,1.093994,0.00,0.00,0.00
988,95.007634,-11.435115,152.106870,-0.246094,-0.050293,1.128662,0.00,0.00,0.00
989,116.122137,-15.404580,139.305344,-0.208008,-0.087891,1.131104,0.00,0.00,0.00
990,135.839695,-18.770992,127.297710,-0.164795,-0.132812,1.150391,0.00,0.00,0.00
991,152.725191,-20.648855,116.442748,-0.130615,-0.180176,1.134766,0.00,0.00,0.00
992,168.931298,-20.755725,106.786260,-0.117188,-0.248291,1.107422,0.00,0.00,0.00
993,183.984733,-20.297710,98.198473,-0.130127,-0.316162,1.072998,0.00,0.00,0.00
994,196.580153,-19.587786,90.778626,-0.160156,-0.365234,1.053955,0.00,0.00,0.00
995,207.709924,-19.496183,84.656489,-0.201416,-0.409912,1.015625,0.00,0.00,0.00
996,216.458015,-19.770992,80.267176,-0.258301,-0.449219,0.997314,0.00,0.00,0.00
997,221.854962,-20.526718,78.381679,-0.298340,-0.476807,0.987549,0.00,0.00,0.00
998,226.557252,-22.328244,77.160305,-0.347412,-0.496826,0.961426,0.00,0.00,0.00
999,229.381679,-24.152672,77.748092,-0.395020,-0.515625,0.957764,0.00,0.00,0.00
1000,229.931298,-25.916031,80.007634,-0.416504,-0.538330,0.936768,0.00,0.00,0.00
1001,228.496183,-27.427481,83.847328,-0.440918,-0.555908,0.914062,0.00,0.00,0.00
1002,224.961832,-28.816794,88.893130,-0.467773,-0.576660,0.906250,0.00,0.00,0.00
1003,219.450382,-29.610687,94.335878,-0.504639,-0.589844,0.888428,0.00,0.00,0.00
1004,211.801527,-31.076336,100.488550,-0.523926,-0.595703,0.878174,0.00,0.00,0.00
1005,204.152672,-32.267176,104.847328,-0.537354,-0.595703,0.858154,0.00,0.00,0.00
1006,193.389313,-33.664122,110.137405,-0.549072,-0.590088,0.834961,0.00,0.00,0.00
1007,180.190840,-35.541985,114.618321,-0.562500,-0.588623,0.813721,0.00,0.00,0.00
1008,165.885496,-37.770992,117.511450,-0.591553,-0.568848,0.767334,0.00,0.00,0.00
1009,149.526718,-39.702290,119.969466,-0.596680,-0.547852,0.736084,0.00,0.00,0.00
1010,127.267176,-40.595420,123.290076,-0.546143,-0.462891,0.796631,0.00,0.00,0.00
1011,105.893130,-43.198473,126.442748,-0.519531,-0.516602,0.719238,0.00,0.00,0.00
1012,83.793893,-42.305344,130.473282,-0.471924,-0.504395,0.718262,0.00,0.00,0.00
1013,62.641221,-40.816794,134.015267,-0.435547,-0.558105,0.642334,0.00,0.00,0.00
1014,45.450382,-38.633588,136.396947,-0.406494,-0.581055,0.653320,0.00,0.00,0.00
1015,23.450382,-34.305344,138.572519,-0.377686,-0.667236,0.669922,0.00,0.00,0.00
1016,4.465649,-30.137405,139.854962,-0.412109,-0.823486,0.664307,0.00,0.00,0.00
1017,-10.335878,-28.587786,140.374046,-0.485107,-1.031250,0.651855,0.00,0.00,0.00
1018,-20.725191,-33.290076,139.442748,-0.627686,-1.247314,0.626465,0.00,0.00,0.00
1019,-27.419847,-40.885496,136.984733,-0.749023,-1.438232,0.636963,0.00,0.00,0.00
1020,-29.496183,-46.725191,136.496183,-0.860596,-1.747559,0.707764,0.00,0.00,0.00
1021,-22.053435,-53.984733,139.435115,-0.863037,-2.000000,0.653076,0.00,0.00,0.00
1022,-4.458015,-63.839695,145.473282,-0.857178,-2.000000,0.573975,0.00,0.00,0.00
1023,18.480916,-73.610687,151.954198,-0.857178,-2.000000,0.485352,0.00,0.00,0.00
1024,41.862595,-82.106870,155.374046,-0.785645,-2.000000,0.392334,0.00,0.00,0.00
1025,61.603053,-87.824427,154.480916,-0.670410,-2.000000,0.288330,0.00,0.00,0.00
1026,75.282443,-90.786260,148.488550,-0.523438,-2.000000,0.175293,0.00,0.00,0.00
1027,81.251908,-89.793893,137.755725,-0.357910,-1.934570,0.056641,0.00,0.00,0.00
1028,81.061069,-84.358779,122.984733,-0.192871,-1.720703,-0.075439,0.00,0.00,0.00
1029,76.145038,-75.083969,105.480916,-0.075439,-1.610840,-0.187256,0.00,0.00,0.00
1030,67.931298,-62.717557,87.618321,0.035645,-1.550781,-0.264893,0.00,0.00,0.00
1031,60.938931,-51.496183,74.030534,0.082031,-1.552490,-0.327148,0.00,0.00,0.00
1032,52.687023,-37.061069,59.068702,0.105469,-1.595703,-0.363281,0.00,0.00,0.00
1033,45.503817,-23.847328,46.236641,0.058350,-1.693604,-0.374268,0.00,0.00,0.00
1034,39.297710,-16.076336,34.511450,-0.034424,-1.788330,-0.356934,0.00,0.00,0.00
1035,37.519084,-4.893130,26.534351,-0.049805,-1.874512,-0.425293,0.00,0.00,0.00
1036,34.687023,-2.519084,18.549618,-0.119873,-1.906006,-0.382812,0.00,0.00,0.00
1037,30.870229,0.267176,10.961832,-0.136230,-1.838135,-0.423828,0.00,0.00,0.00
1038,24.267176,1.618321,3.572519,-0.126953,-1.759766,-0.409668,0.00,0.00,0.00
1039,17.656489,3.908397,-1.816794,-0.101807,-1.692139,-0.419922,0.00,0.00,0.00
1040,-4.786260,-10.877863,-13.633588,-0.669189,-1.529297,0.071289,0.00,0.00,0.00
1041,-24.816794,-29.206107,-52.389313,-0.633301,-1.496338,-0.827148,0.00,0.00,0.00
1042,-51.206107,-38.694656,-70.931298,-0.329834,-1.398682,-0.449707,0.00,0.00,0.00
1043,-68.877863,-49.427481,-82.755725,-0.237061,-1.415283,-0.590088,0.00,0.00,0.00
1044,-86.465649,-54.641221,-91.312977,-0.187500,-1.578369,-0.516113,0.00,0.00,0.00
1045,-100.748092,-47.946565,-93.282443,-0.149658,-1.962402,-0.584961,0.00,0.00,0.00
1046,-116.167939,-38.534351,-92.175573,-0.057373,-2.000000,-0.604980,0.00,0.00,0.00
1047,-136.977099,-23.923664,-86.282443,0.153320,-2.000000,-0.861328,0.00,0.00,0.00
1048,-158.244275,-8.206107,-77.740458,0.356689,-2.000000,-1.204102,0.00,0.00,0.00
1049,-152.274809,-1.145038,-67.458015,0.610352,1.351318,-0.171143,0.00,0.00,0.00
1050,-223.030534,-3.580153,-103.297710,-1.326172,0.207764,1.235352,0.00,0.00,0.00
1051,-233.129771,-17.320611,-134.931298,-1.812256,-0.988281,1.643799,0.00,0.00,0.00
1052,-190.977099,-40.893130,-133.282443,-0.752930,-2.000000,1.512939,0.00,0.00,0.00
1053,-109.816794,-141.893130,-153.732824,-1.426270,-2.000000,1.856445,0.00,0.00,0.00
1054,-16.160305,-79.916031,-89.740458,1.408203,-2.000000,0.634766,0.00,0.00,0.00
1055,27.198473,-22.938931,-28.709924,1.018799,-1.140381,1.614258,0.00,0.00,0.00
1056,1.770992,-28.893130,-32.396947,0.380371,0.003174,0.784424,0.00,0.00,0.00
1057,-6.625954,-50.725191,-48.488550,-0.390869,0.135742,0.611084,0.00,0.00,0.00
1058,-7.236641,-59.832061,-50.908397,-1.078857,-0.813721,0.966797,0.00,0.00,0.00
1059,12.480916,-36.610687,-32.458015,-0.784424,-1.530762,0.692627,0.00,0.00,0.00
1060,12.213740,-34.587786,-21.824427,-0.178711,-0.825439,0.646484,0.00,0.00,0.00
1061,15.862595,-29.335878,-20.778626,0.078125,-0.561768,0.550049,0.00,0.00,0.00
1062,18.770992,-20.664122,-13.175573,0.081299,-0.862549,0.849609,0.00,0.00,0.00
1063,22.274809,-11.908397,-8.175573,-0.164062,-0.538818,0.793213,0.00,0.00,0.00
1064,15.839695,-14.900763,-7.809160,-0.432129,-0.583252,0.857666,0.00,0.00,0.00
1065,14.572519,-13.847328,-7.877863,-0.335449,-0.653076,0.783936,0.00,0.00,0.00
1066,14.740458,-8.473282,-5.183206,-0.127930,-0.594971,0.835205,0.00,0.00,0.00
1067,12.618321,-6.450382,-3.389313,-0.164551,-0.561035,0.852539,0.00,0.00,0.00
1068,9.068702,-6.496183,-2.129771,-0.241211,-0.567139,0.819580,0.00,0.00,0.00
1069,8.839695,-4.236641,-1.458015,-0.278076,-0.575684,0.754395,0.00,0.00,0.00
1070,7.679389,-3.488550,-0.862595,-0.248291,-0.565430,0.814697,0.00,0.00,0.00
1071,5.633588,-2.580153,-0.358779,-0.247070,-0.545166,0.806152,0.00,0.00,0.00
1072,5.587786,-0.320611,0.213740,-0.270752,-0.565430,0.772949,0.00,0.00,0.00
1073,3.977099,-0.045802,0.809160,-0.276611,-0.550781,0.782715,0.00,0.00,0.00
1074,2.816794,0.893130,1.236641,-0.259033,-0.563232,0.787842,0.00,0.00,0.00
1075,2.114504,1.465649,1.465649,-0.273682,-0.563232,0.779053,0.00,0.00,0.00
1076,0.908397,2.206107,2.038168,-0.253418,-0.557373,0.791504,0.00,0.00,0.00
1077,-0.015267,3.366412,2.572519,-0.260254,-0.552979,0.789551,0.00,0.00,0.00
1078,-1.419847,3.221374,2.358779,-0.285889,-0.550293,0.788086,0.00,0.00,0.00
1079,-1.885496,3.076336,1.946565,-0.283447,-0.552490,0.778320,0.00,0.00,0.00
1080,-2.175573,2.335878,1.274809,-0.295898,-0.552734,0.762207,0.00,0.00,0.00
1081,-2.358779,1.183206,0.519084,-0.292236,-0.548828,0.760498,0.00,0.00,0.00
1082,-2.343511,1.000000,0.389313,-0.291016,-0.549561,0.757080,0.00,0.00,0.00
1083,-2.824427,0.664122,0.404580,-0.291504,-0.554199,0.758301,0.00,0.00,0.00
1084,-2.725191,0.908397,0.358779,-0.296143,-0.548340,0.768555,0.00,0.00,0.00
1085,-3.526718,1.442748,0.832061,-0.283447,-0.547119,0.783936,0.00,0.00,0.00
1086,-4.251908,2.129771,1.251908,-0.280273,-0.551270,0.781006,0.00,0.00,0.00
1087,-4.732824,2.664122,1.282443,-0.291748,-0.553223,0.770020,0.00,0.00,0.00
1088,-5.068702,2.748092,1.206107,-0.309082,-0.544678,0.773438,0.00,0.00,0.00
1089,-5.022901,3.022901,1.022901,-0.318359,-0.552979,0.760010,0.00,0.00,0.00
1090,-5.038168,3.190840,0.534351,-0.308838,-0.553955,0.775146,0.00,0.00,0.00
1091,-5.358779,3.274809,0.221374,-0.299561,-0.544189,0.766846,0.00,0.00,0.00
1092,-5.801527,3.900763,-0.351145,-0.294189,-0.545898,0.785645,0.00,0.00,0.00
1093,-6.572519,3.641221,-1.045802,-0.322998,-0.555176,0.780762,0.00,0.00,0.00
1094,-6.541985,4.458015,-1.015267,-0.310303,-0.531738,0.760742,0.00,0.00,0.00
1095,-7.106870,4.778626,-1.633588,-0.313965,-0.546143,0.788330,0.00,0.00,0.00
1096,-7.618321,4.526718,-2.183206,-0.333496,-0.563232,0.768799,0.00,0.00,0.00
1097,-8.564885,5.610687,-2.198473,-0.303467,-0.527832,0.804443,0.00,0.00,0.00
1098,-10.725191,6.053435,-2.916031,-0.312012,-0.547607,0.785645,0.00,0.00,0.00
1099,-11.175573,6.961832,-2.664122,-0.294434,-0.554443,0.781250,0.00,0.00,0.00
1100,-12.938931,7.603053,-3.366412,-0.293945,-0.546631,0.787598,0.00,0.00,0.00
1101,-14.229008,7.435115,-3.671756,-0.300293,-0.538574,0.796387,0.00,0.00,0.00
1102,-15.343511,8.045802,-4.114504,-0.300293,-0.543213,0.776611,0.00,0.00,0.00
1103,-16.320611,7.984733,-4.282443,-0.295654,-0.545654,0.776123,0.00,0.00,0.00
1104,-17.129771,7.717557,-5.076336,-0.300537,-0.553467,0.761719,0.00,0.00,0.00
1105,-17.717557,7.763359,-5.282443,-0.296875,-0.550537,0.783203,0.00,0.00,0.00
1106,-19.312977,7.870229,-5.595420,-0.293457,-0.538330,0.791504,0.00,0.00,0.00
1107,-20.473282,8.396947,-5.786260,-0.277588,-0.550537,0.793213,0.00,0.00,0.00
1108,-21.740458,9.465649,-5.786260,-0.274170,-0.556396,0.784180,0.00,0.00,0.00
1109,-23.083969,9.702290,-6.068702,-0.281006,-0.559814,0.778564,0.00,0.00,0.00
1110,-24.328244,10.045802,-5.885496,-0.284424,-0.550049,0.775879,0.00,0.00,0.00
1111,-25.984733,10.427481,-6.152672,-0.303711,-0.548340,0.794434,0.00,0.00,0.00
1112,-27.778626,10.572519,-6.816794,-0.312988,-0.559570,0.775635,0.00,0.00,0.00
1113,-29.839695,10.465649,-7.213740,-0.315674,-0.552246,0.785889,0.00,0.00,0.00
1114,-31.900763,11.045802,-8.076336,-0.328369,-0.545898,0.792480,0.00,0.00,0.00
1115,-34.526718,11.106870,-8.954198,-0.335205,-0.542969,0.803955,0.00,0.00,0.00
1116,-36.931298,11.335878,-9.877863,-0.345703,-0.540527,0.801758,0.00,0.00,0.00
1117,-40.496183,11.687023,-11.267176,-0.342285,-0.549561,0.813721,0.00,0.00,0.00
1118,-44.175573,12.122137,-12.419847,-0.353516,-0.541992,0.827393,0.00,0.00,0.00
1119,-48.366412,13.572519,-13.732824,-0.345703,-0.529785,0.842773,0.00,0.00,0.00
1120,-53.358779,14.763359,-14.992366,-0.320557,-0.536865,0.857422,0.00,0.00,0.00
1121,-59.137405,16.213740,-16.358779,-0.324463,-0.536133,0.876465,0.00,0.00,0.00
1122,-64.931298,17.877863,-17.526718,-0.314209,-0.520264,0.886963,0.00,0.00,0.00
1123,-72.167939,19.374046,-18.625954,-0.302002,-0.528809,0.901855,0.00,0.00,0.00
1124,-80.221374,21.038168,-19.305344,-0.268311,-0.531494,0.913086,0.00,0.00,0.00
1125,-87.610687,23.694656,-20.152672,-0.242188,-0.516602,0.951660,0.00,0.00,0.00
1126,-96.068702,25.038168,-20.778626,-0.241455,-0.528076,0.953857,0.00,0.00,0.00
1127,-105.152672,25.954198,-21.519084,-0.258545,-0.536621,0.964111,0.00,0.00,0.00
1128,-113.969466,27.122137,-21.839695,-0.256104,-0.538330,0.964111,0.00,0.00,0.00
1129,-122.572519,30.465649,-20.648855,-0.284912,-0.572021,0.956543,0.00,0.00,0.00
1130,-134.030534,30.839695,-21.641221,-0.275391,-0.500977,0.949707,0.00,0.00,0.00
1131,-143.458015,31.938931,-22.969466,-0.270996,-0.580811,0.984619,0.00,0.00,0.00
1132,-154.862595,34.534351,-24.748092,-0.352051,-0.534668,0.998047,0.00,0.00,0.00
1133,-163.427481,35.946565,-26.541985,-0.386475,-0.539062,1.001953,0.00,0.00,0.00
1134,-175.786260,38.625954,-29.488550,-0.401123,-0.550049,1.027588,0.00,0.00,0.00
1135,-190.244275,42.473282,-33.992366,-0.463135,-0.525635,1.089355,0.00,0.00,0.00
1136,-205.694656,43.786260,-40.045802,-0.503662,-0.538330,1.144531,0.00,0.00,0.00
1137,-220.328244,45.190840,-46.183206,-0.526611,-0.504639,1.146240,0.00,0.00,0.00
1138,-236.832061,44.015267,-50.778626,-0.480957,-0.687500,1.215088,0.00,0.00,0.00
1139,-250.137405,44.122137,-58.206107,-0.492920,-0.413330,1.329346,0.00,0.00,0.00
1140,-250.137405,43.648855,-66.419847,-0.473877,-0.709229,1.526367,0.00,0.00,0.00
1141,-250.137405,48.480916,-72.595420,-0.562256,-0.575195,1.700928,0.00,0.00,0.00
1142,-250.137405,44.931298,-88.259542,-0.873047,-0.642822,1.831787,0.00,0.00,0.00
1143,-250.137405,36.801527,-106.282443,-1.044922,-0.673828,1.755127,0.00,0.00,0.00
1144,-250.137405,36.152672,-118.755725,-1.122314,-0.967285,1.609375,0.00,0.00,0.00
1145,-250.137405,22.167939,-136.832061,-1.542236,-1.141357,1.719727,0.00,0.00,0.00
1146,-250.137405,19.442748,-160.870229,-1.479004,-1.118652,1.627441,0.00,0.00,0.00
1147,-250.137405,27.618321,-182.404580,-1.386475,-1.392334,1.588867,0.00,0.00,0.00
1148,-250.137405,40.931298,-198.007634,-1.288574,-1.247070,1.534424,0.00,0.00,0.00
1149,-250.137405,49.786260,-211.389313,-1.156006,-0.989258,1.441162,0.00,0.00,0.00
1150,-250.137405,56.366412,-219.511450,-1.128174,-0.878174,1.419434,0.00,0.00,0.00
1151,-250.137405,55.206107,-227.961832,-1.216064,-0.919189,1.301025,0.00,0.00,0.00
1152,-250.137405,47.259542,-228.854962,-1.290771,-1.070068,1.228760,0.00,0.00,0.00
1153,-250.137405,29.297710,-225.297710,-1.287109,-1.288086,1.248047,0.00,0.00,0.00
1154,-250.137405,12.412214,-217.129771,-1.190674,-1.722412,1.214600,0.00,0.00,0.00
1155,-250.137405,-0.862595,-221.290076,-1.110352,-1.717285,1.163086,0.00,0.00,0.00
1156,-250.137405,-5.160305,-199.946565,-0.412842,-1.336182,1.425293,0.00,0.00,0.00
1157,-196.732824,32.167939,-131.022901,0.257080,-1.473389,1.602295,0.00,0.00,0.00
1158,-125.259542,60.259542,-68.847328,0.493652,-1.006348,1.622559,0.00,0.00,0.00
1159,-49.557252,88.038168,-10.129771,-0.039551,-0.122559,1.816162,0.00,0.00,0.00
1160,0.610687,101.534351,19.755725,-0.830322,0.763428,1.903564,0.00,0.00,0.00
1161,-26.496183,103.641221,8.206107,-1.030762,0.526367,1.829102,0.00,0.00,0.00
1162,-3.908397,75.328244,-6.656489,-1.699707,-0.120605,1.644531,0.00,0.00,0.00
1163,22.938931,49.274809,-14.977099,-1.214600,0.503174,1.667480,0.00,0.00,0.00
1164,33.549618,23.442748,-23.824427,-0.896240,0.717773,1.618408,0.00,0.00,0.00
1165,50.870229,6.885496,-27.839695,-0.737549,0.394043,1.439453,0.00,0.00,0.00
1166,82.679389,-2.526718,-25.877863,-0.620361,0.084229,1.323730,0.00,0.00,0.00
1167,111.061069,-2.832061,-21.030534,-0.430176,0.044678,1.248047,0.00,0.00,0.00
1168,142.900763,2.404580,-12.183206,-0.205078,0.126221,1.154785,0.00,0.00,0.00
1169,169.923664,13.320611,-2.167939,-0.052002,0.259766,1.061035,0.00,0.00,0.00
1170,189.862595,24.213740,5.755725,0.004883,0.405518,0.999512,0.00,0.00,0.00
1171,204.053435,33.175573,11.473282,0.018311,0.487305,0.889404,0.00,0.00,0.00
1172,214.221374,41.877863,16.496183,0.036865,0.502930,0.819580,0.00,0.00,0.00
1173,222.267176,48.572519,21.664122,0.042969,0.458740,0.763916,0.00,0.00,0.00
1174,230.221374,54.832061,27.938931,0.049072,0.382324,0.737549,0.00,0.00,0.00
1175,238.389313,60.114504,35.328244,0.026855,0.297363,0.717041,0.00,0.00,0.00
1176,246.862595,64.152672,43.396947,-0.012207,0.188232,0.721680,0.00,0.00,0.00
1177,250.129771,66.961832,52.709924,-0.036865,0.082031,0.705322,0.00,0.00,0.00
1178,250.129771,67.832061,62.007634,-0.091797,0.001709,0.704102,0.00,0.00,0.00
1179,250.129771,67.129771,71.038168,-0.143799,-0.073242,0.716309,0.00,0.00,0.00
1180,250.129771,64.541985,79.282443,-0.202637,-0.135254,0.718750,0.00,0.00,0.00
1181,250.129771,60.389313,87.022901,-0.238525,-0.190186,0.742188,0.00,0.00,0.00
1182,250.129771,55.007634,94.961832,-0.277344,-0.242188,0.751953,0.00,0.00,0.00
1183,250.129771,48.267176,103.267176,-0.293701,-0.310791,0.762939,0.00,0.00,0.00
1184,250.129771,42.900763,110.648855,-0.300049,-0.375244,0.757080,0.00,0.00,0.00
1185,250.129771,36.290076,121.435115,-0.288574,-0.457031,0.765137,0.00,0.00,0.00
1186,250.129771,29.274809,132.702290,-0.272461,-0.552490,0.769043,0.00,0.00,0.00
1187,250.129771,23.183206,144.763359,-0.238525,-0.637939,0.776123,0.00,0.00,0.00
1188,250.129771,18.137405,156.305344,-0.182373,-0.711182,0.790283,0.00,0.00,0.00
1189,250.129771,15.526718,166.809160,-0.116211,-0.750732,0.813232,0.00,0.00,0.00
1190,250.129771,14.778626,175.190840,-0.041016,-0.797363,0.842041,0.00,0.00,0.00
1191,250.129771,16.755725,181.343511,0.045654,-0.844971,0.876465,0.00,0.00,0.00
1192,250.129771,20.610687,184.396947,0.069092,-0.897705,0.888916,0.00,0.00,0.00
1193,250.129771,28.465649,187.152672,0.082520,-1.036377,0.896484,0.00,0.00,0.00
1194,250.129771,30.961832,184.969466,-0.017578,-1.197266,0.954834,0.00,0.00,0.00
1195,250.129771,30.175573,182.305344,-0.078369,-1.422607,0.925537,0.00,0.00,0.00
1196,250.129771,27.687023,178.977099,-0.136475,-1.573242,0.959961,0.00,0.00,0.00
1197,250.129771,21.534351,173.458015,-0.215820,-1.672607,0.940674,0.00,0.00,0.00
1198,250.129771,13.167939,166.274809,-0.286377,-1.780029,0.889648,0.00,0.00,0.00
1199,250.129771,2.297710,157.717557,-0.351074,-1.878906,0.878906,0.00,0.00,0.00
1200,250.129771,-10.045802,148.732824,-0.404053,-1.948975,0.828613,0.00,0.00,0.00
1201,246.900763,-19.305344,142.290076,-0.434570,-2.000000,0.753906,0.00,0.00,0.00
1202,237.572519,-29.183206,135.374046,-0.447266,-2.000000,0.656738,0.00,0.00,0.00
1203,227.381679,-37.816794,129.717557,-0.473633,-2.000000,0.557373,0.00,0.00,0.00
1204,214.488550,-44.343511,125.938931,-0.484131,-2.000000,0.434570,0.00,0.00,0.00
1205,199.267176,-48.465649,124.129771,-0.475586,-2.000000,0.305908,0.00,0.00,0.00
1206,181.862595,-50.091603,123.992366,-0.472900,-2.000000,0.201660,0.00,0.00,0.00
1207,162.694656,-48.946565,125.877863,-0.483398,-2.000000,0.124268,0.00,0.00,0.00
1208,145.076336,-45.595420,130.648855,-0.486328,-2.000000,0.035645,0.00,0.00,0.00
1209,132.824427,-43.206107,135.984733,-0.489258,-2.000000,-0.035645,0.00,0.00,0.00
1210,120.526718,-41.839695,142.671756,-0.515869,-2.000000,-0.105469,0.00,0.00,0.00
1211,108.954198,-42.725191,148.656489,-0.556885,-2.000000,-0.162842,0.00,0.00,0.00
1212,97.862595,-44.053435,152.908397,-0.514648,-2.000000,-0.206299,0.00,0.00,0.00
1213,85.145038,-44.786260,154.687023,-0.425293,-2.000000,-0.249268,0.00,0.00,0.00
1214,72.335878,-43.862595,153.427481,-0.318359,-2.000000,-0.301025,0.00,0.00,0.00
1215,58.748092,-41.206107,150.511450,-0.210938,-2.000000,-0.356445,0.00,0.00,0.00
1216,43.549618,-36.725191,145.900763,-0.089355,-2.000000,-0.395752,0.00,0.00,0.00
1217,27.251908,-31.366412,139.587786,0.036865,-1.986328,-0.422852,0.00,0.00,0.00
1218,13.923664,-26.335878,133.862595,0.116455,-1.961670,-0.450928,0.00,0.00,0.00
1219,-2.984733,-20.251908,124.969466,0.180664,-1.938477,-0.488525,0.00,0.00,0.00
1220,-19.030534,-13.480916,113.038168,0.197754,-1.933594,-0.534912,0.00,0.00,0.00
1221,-32.610687,-4.473282,101.770992,0.185791,-1.937500,-0.482666,0.00,0.00,0.00
1222,-44.954198,-1.526718,88.610687,0.157227,-1.993408,-0.450439,0.00,0.00,0.00
1223,-50.557252,1.603053,75.961832,0.127197,-2.000000,-0.444092,0.00,0.00,0.00
1224,-51.198473,3.610687,63.244275,0.030029,-2.000000,-0.435791,0.00,0.00,0.00
1225,-49.946565,1.572519,49.465649,-0.047852,-2.000000,-0.392822,0.00,0.00,0.00
1226,-48.083969,1.290076,35.343511,-0.072754,-1.923340,-0.369385,0.00,0.00,0.00
1227,-86.244275,-39.603053,-7.099237,-0.844482,-2.000000,0.159424,0.00,0.00,0.00
1228,-76.343511,-36.740458,-36.267176,-0.228271,-1.698730,-0.663818,0.00,0.00,0.00
1229,-91.679389,-42.839695,-57.732824,-0.182373,-1.327393,-0.410645,0.00,0.00,0.00
1230,-109.213740,-45.213740,-71.870229,-0.005859,-1.270996,-0.375732,0.00,0.00,0.00
1231,-122.793893,-32.740458,-81.725191,0.134521,-1.350830,-0.355713,0.00,0.00,0.00
1232,-138.297710,-15.473282,-80.862595,0.152588,-1.322266,-0.310547,0.00,0.00,0.00
1233,-133.320611,-22.488550,-64.404580,-0.001221,0.082275,0.080811,0.00,0.00,0.00
1234,-156.267176,-21.282443,-67.465649,-0.761963,-0.157959,0.825928,0.00,0.00,0.00
1235,-162.091603,-12.061069,-71.282443,-0.968506,-0.236816,0.990479,0.00,0.00,0.00
1236,-177.320611,14.053435,-78.496183,-0.799072,0.005615,1.609131,0.00,0.00,0.00
1237,-216.694656,18.580153,-86.083969,-0.618896,-0.154053,1.627197,0.00,0.00,0.00
1238,-207.221374,-91.610687,-193.175573,-2.000000,-2.000000,1.348633,0.00,0.00,0.00
1239,-117.114504,-155.938931,-181.442748,0.135986,-2.000000,0.711182,0.00,0.00,0.00
1240,10.572519,-67.900763,-71.748092,1.306396,-2.000000,0.809082,0.00,0.00,0.00
1241,24.366412,-18.664122,-3.083969,1.214111,-1.863037,1.898926,0.00,0.00,0.00
1242,27.328244,-6.725191,-2.961832,0.471191,0.133545,0.782471,0.00,0.00,0.00
1243,4.679389,-33.625954,-27.847328,-0.795410,0.545410,0.874023,0.00,0.00,0.00
1244,-8.312977,-35.419847,-37.358779,-0.999512,-0.371338,0.816895,0.00,0.00,0.00
1245,6.145038,-32.366412,-25.282443,-0.591064,-1.124756,0.715332,0.00,0.00,0.00
1246,6.236641,-20.236641,-14.916031,0.053955,-1.039307,0.535400,0.00,0.00,0.00
1247,10.961832,-13.839695,-8.412214,-0.033203,-0.590088,0.689453,0.00,0.00,0.00
1248,11.839695,-14.030534,-10.137405,-0.314453,-0.486572,0.815430,0.00,0.00,0.00
1249,12.129771,-10.160305,-9.748092,-0.381592,-0.594971,0.728271,0.00,0.00,0.00
1250,11.229008,-16.969466,-9.625954,-0.467529,-0.606201,0.742432,0.00,0.00,0.00
1251,9.877863,-14.022901,-9.770992,-0.306641,-0.598633,0.691162,0.00,0.00,0.00
1252,10.511450,-11.053435,-7.213740,-0.172852,-0.596924,0.804932,0.00,0.00,0.00
1253,9.992366,-9.114504,-6.297710,-0.192139,-0.586182,0.824707,0.00,0.00,0.00
1254,5.396947,-9.801527,-4.946565,-0.262695,-0.572021,0.803467,0.00,0.00,0.00
1255,6.274809,-4.465649,-3.083969,-0.252441,-0.594971,0.711914,0.00,0.00,0.00
1256,5.572519,-5.083969,-2.152672,-0.275391,-0.561523,0.781494,0.00,0.00,0.00
1257,4.267176,-4.083969,-1.702290,-0.245117,-0.568604,0.787842,0.00,0.00,0.00
1258,3.725191,-0.603053,0.229008,-0.223389,-0.586426,0.802246,0.00,0.00,0.00
1259,1.381679,0.419847,1.641221,-0.248779,-0.575439,0.804443,0.00,0.00,0.00
1260,0.877863,2.816794,2.595420,-0.280762,-0.572266,0.761963,0.00,0.00,0.00
1261,0.870229,3.183206,2.862595,-0.325684,-0.570312,0.755127,0.00,0.00,0.00
1262,0.244275,3.625954,3.038168,-0.334961,-0.571289,0.749023,0.00,0.00,0.00
1263,0.870229,3.984733,2.946565,-0.329102,-0.561279,0.751221,0.00,0.00,0.00
1264,0.183206,3.717557,2.595420,-0.325928,-0.557617,0.761230,0.00,0.00,0.00
1265,0.122137,4.519084,2.717557,-0.291260,-0.560059,0.775146,0.00,0.00,0.00
1266,-0.885496,4.496183,2.687023,-0.307129,-0.555420,0.765869,0.00,0.00,0.00
1267,-1.366412,4.969466,2.717557,-0.317871,-0.563477,0.745361,0.00,0.00,0.00
1268,-1.671756,4.885496,2.625954,-0.317139,-0.557129,0.761475,0.00,0.00,0.00
1269,-2.137405,4.908397,2.473282,-0.309570,-0.554688,0.757812,0.00,0.00,0.00
1270,-2.114504,5.152672,2.374046,-0.304932,-0.552734,0.755615,0.00,0.00,0.00
1271,-2.366412,4.847328,1.847328,-0.324463,-0.550537,0.744385,0.00,0.00,0.00
1272,-2.656489,5.167939,1.549618,-0.324463,-0.549805,0.771973,0.00,0.00,0.00
1273,-3.328244,5.480916,1.381679,-0.311768,-0.548584,0.767090,0.00,0.00,0.00
1274,-3.480916,6.114504,1.595420,-0.312500,-0.552246,0.747314,0.00,0.00,0.00
1275,-3.809160,5.908397,1.259542,-0.328613,-0.552246,0.749268,0.00,0.00,0.00
1276,-4.145038,5.984733,1.000000,-0.330078,-0.551758,0.749268,0.00,0.00,0.00
1277,-4.000000,6.129771,0.946565,-0.320557,-0.563232,0.749756,0.00,0.00,0.00
1278,-4.053435,5.946565,0.770992,-0.315186,-0.557373,0.743164,0.00,0.00,0.00
1279,-3.725191,6.206107,1.045802,-0.315918,-0.565186,0.727539,0.00,0.00,0.00
1280,-4.152672,5.709924,0.992366,-0.333252,-0.561279,0.736328,0.00,0.00,0.00
1281,-4.267176,6.045802,0.786260,-0.340576,-0.546387,0.748535,0.00,0.00,0.00
1282,-4.190840,5.801527,0.236641,-0.338379,-0.562744,0.745850,0.00,0.00,0.00
1283,-4.618321,5.694656,0.015267,-0.328857,-0.552002,0.749512,0.00,0.00,0.00
1284,-4.877863,5.694656,-0.221374,-0.323242,-0.562988,0.757324,0.00,0.00,0.00
1285,-5.160305,5.587786,-0.564885,-0.330811,-0.557129,0.753174,0.00,0.00,0.00
1286,-4.938931,4.946565,-0.717557,-0.342041,-0.558594,0.740479,0.00,0.00,0.00
1287,-4.755725,4.618321,-1.404580,-0.349365,-0.558594,0.745850,0.00,0.00,0.00
1288,-5.167939,4.496183,-1.832061,-0.346436,-0.556396,0.758301,0.00,0.00,0.00
1289,-6.007634,4.526718,-2.076336,-0.328613,-0.551758,0.766602,0.00,0.00,0.00
1290,-6.969466,5.038168,-2.305344,-0.319580,-0.563721,0.756836,0.00,0.00,0.00
1291,-7.809160,5.267176,-2.435115,-0.301025,-0.563965,0.763916,0.00,0.00,0.00
1292,-8.648855,5.862595,-2.091603,-0.289795,-0.567383,0.750488,0.00,0.00,0.00
1293,-9.480916,6.435115,-1.969466,-0.293701,-0.556641,0.777832,0.00,0.00,0.00
1294,-10.358779,7.053435,-1.564885,-0.285645,-0.561035,0.769287,0.00,0.00,0.00
1295,-11.122137,7.931298,-1.366412,-0.293213,-0.569092,0.761475,0.00,0.00,0.00
1296,-12.038168,8.625954,-0.816794,-0.287109,-0.567383,0.770996,0.00,0.00,0.00
1297,-13.091603,9.465649,-0.671756,-0.307129,-0.564209,0.766113,0.00,0.00,0.00
1298,-14.213740,10.389313,-0.442748,-0.311279,-0.567627,0.751221,0.00,0.00,0.00
1299,-15.320611,11.099237,-0.419847,-0.319580,-0.554199,0.764404,0.00,0.00,0.00
1300,-16.083969,11.740458,-1.061069,-0.327393,-0.550293,0.760010,0.00,0.00,0.00
1301,-17.351145,12.519084,-1.488550,-0.344727,-0.549805,0.763672,0.00,0.00,0.00
1302,-18.862595,12.984733,-2.091603,-0.353271,-0.562012,0.755859,0.00,0.00,0.00
1303,-20.335878,13.137405,-2.534351,-0.359131,-0.556152,0.770752,0.00,0.00,0.00
1304,-22.297710,13.190840,-3.419847,-0.376465,-0.543945,0.775146,0.00,0.00,0.00
1305,-24.732824,13.931298,-4.587786,-0.355469,-0.550049,0.799805,0.00,0.00,0.00
1306,-26.816794,15.206107,-4.877863,-0.341553,-0.557617,0.785400,0.00,0.00,0.00
1307,-29.404580,16.534351,-5.709924,-0.353271,-0.552979,0.782959,0.00,0.00,0.00
1308,-32.320611,17.687023,-6.526718,-0.353516,-0.555664,0.796631,0.00,0.00,0.00
1309,-35.656489,18.503817,-7.030534,-0.360596,-0.547119,0.792480,0.00,0.00,0.00
1310,-39.305344,19.152672,-7.618321,-0.356201,-0.540527,0.804199,0.00,0.00,0.00
1311,-41.839695,20.312977,-7.946565,-0.342041,-0.547363,0.804932,0.00,0.00,0.00
1312,-45.725191,21.694656,-8.183206,-0.312500,-0.553955,0.799072,0.00,0.00,0.00
1313,-49.992366,23.137405,-8.351145,-0.335693,-0.536621,0.830811,0.00,0.00,0.00
1314,-55.389313,24.190840,-8.526718,-0.320312,-0.547363,0.855957,0.00,0.00,0.00
1315,-60.633588,26.290076,-8.351145,-0.306396,-0.546387,0.851074,0.00,0.00,0.00
1316,-65.656489,28.305344,-8.679389,-0.320312,-0.552734,0.846924,0.00,0.00,0.00
1317,-72.022901,29.816794,-9.389313,-0.350342,-0.532471,0.873291,0.00,0.00,0.00
1318,-78.847328,31.404580,-10.312977,-0.352783,-0.529053,0.881836,0.00,0.00,0.00
1319,-86.061069,32.816794,-11.160305,-0.341553,-0.529297,0.875732,0.00,0.00,0.00
1320,-92.030534,33.755725,-11.854962,-0.356445,-0.540283,0.887695,0.00,0.00,0.00
1321,-99.358779,34.908397,-12.885496,-0.351562,-0.545166,0.885254,0.00,0.00,0.00
1322,-106.305344,36.862595,-14.778626,-0.371094,-0.553223,0.881348,0.00,0.00,0.00
1323,-114.229008,38.541985,-16.213740,-0.401123,-0.546875,0.889404,0.00,0.00,0.00
1324,-122.969466,40.374046,-18.312977,-0.400391,-0.531738,0.924316,0.00,0.00,0.00
1325,-132.603053,43.076336,-20.763359,-0.416504,-0.538818,0.938477,0.00,0.00,0.00
1326,-142.854962,45.038168,-23.030534,-0.419678,-0.556152,0.935547,0.00,0.00,0.00
1327,-153.091603,47.610687,-25.229008,-0.437500,-0.568848,0.934082,0.00,0.00,0.00
1328,-164.213740,50.396947,-26.503817,-0.403076,-0.554688,0.985840,0.00,0.00,0.00
1329,-176.465649,53.679389,-27.786260,-0.383789,-0.564209,1.023193,0.00,0.00,0.00
1330,-191.030534,58.244275,-29.328244,-0.372803,-0.557617,1.091797,0.00,0.00,0.00
1331,-208.847328,63.633588,-29.824427,-0.396240,-0.553711,1.261230,0.00,0.00,0.00
1332,-231.122137,67.038168,-32.236641,-0.494385,-0.432129,1.391602,0.00,0.00,0.00
1333,-250.137405,65.412214,-37.106870,-0.588623,-0.739258,1.321045,0.00,0.00,0.00
1334,-250.137405,65.671756,-44.198473,-0.679932,-0.478027,1.344238,0.00,0.00,0.00
1335,-250.137405,61.480916,-57.274809,-0.839111,-0.655762,1.388672,0.00,0.00,0.00
1336,-250.137405,67.534351,-73.893130,-0.766846,-0.877197,1.413818,0.00,0.00,0.00
1337,-250.137405,73.572519,-82.068702,-0.643555,-0.759277,1.519287,0.00,0.00,0.00
1338,-250.137405,77.938931,-89.519084,-0.814453,-1.119141,1.576904,0.00,0.00,0.00
1339,-250.137405,80.732824,-104.969466,-1.083740,-0.856445,1.568848,0.00,0.00,0.00
1340,-250.137405,73.900763,-115.511450,-1.513184,-0.931885,1.564209,0.00,0.00,0.00
1341,-250.137405,65.603053,-147.152672,-1.666992,-1.014160,1.539551,0.00,0.00,0.00
1342,-250.137405,63.595420,-170.748092,-1.336182,-1.153320,1.333984,0.00,0.00,0.00
1343,-250.137405,74.824427,-183.534351,-1.057861,-1.096924,1.269775,0.00,0.00,0.00
1344,-250.137405,89.610687,-192.755725,-1.136230,-1.041260,1.228271,0.00,0.00,0.00
1345,-250.137405,89.488550,-205.587786,-1.337402,-1.074219,1.202881,0.00,0.00,0.00
1346,-250.137405,76.503817,-220.442748,-1.446289,-1.164062,1.120850,0.00,0.00,0.00
1347,-250.137405,54.916031,-222.961832,-1.343262,-1.330566,1.054443,0.00,0.00,0.00
1348,-250.137405,35.770992,-213.229008,-1.258301,-1.405029,1.024170,0.00,0.00,0.00
1349,-250.137405,11.045802,-205.656489,-1.309082,-1.712402,0.970215,0.00,0.00,0.00
1350,-250.137405,-17.839695,-205.709924,-1.095215,-1.072510,1.150635,0.00,0.00,0.00
1351,-230.221374,-14.343511,-154.343511,-0.800049,-1.252686,1.496582,0.00,0.00,0.00
1352,-149.404580,-0.633588,-87.977099,-0.497803,-1.160400,1.437744,0.00,0.00,0.00
1353,-79.786260,11.763359,-22.053435,-0.232178,-0.321777,1.471924,0.00,0.00,0.00
1354,-38.022901,27.244275,19.931298,-0.274658,0.401855,1.693604,0.00,0.00,0.00
1355,-11.442748,48.694656,48.053435,-0.684082,1.131592,1.909424,0.00,0.00,0.00
1356,-44.083969,68.725191,47.511450,-0.700684,0.631104,1.405273,0.00,0.00,0.00
1357,-15.366412,60.732824,42.809160,-1.004395,0.258301,1.429443,0.00,0.00,0.00
1358,9.931298,58.870229,45.633588,-0.634766,0.733398,1.463623,0.00,0.00,0.00
1359,22.076336,50.152672,40.709924,-0.524658,0.778320,1.299805,0.00,0.00,0.00
1360,43.786260,40.755725,37.473282,-0.601807,0.437256,1.264160,0.00,0.00,0.00
1361,72.022901,33.068702,35.862595,-0.541992,0.259521,1.227539,0.00,0.00,0.00
1362,97.404580,30.648855,37.000000,-0.383301,0.188965,1.197021,0.00,0.00,0.00
1363,127.274809,29.923664,41.198473,-0.210205,0.163330,1.176514,0.00,0.00,0.00
1364,157.671756,34.931298,47.580153,-0.069824,0.186523,1.103516,0.00,0.00,0.00
1365,182.183206,38.977099,52.862595,-0.043701,0.227783,1.073975,0.00,0.00,0.00
1366,202.015267,41.564885,55.381679,-0.045898,0.252197,1.001221,0.00,0.00,0.00
1367,218.671756,41.503817,55.297710,-0.072510,0.234375,0.948486,0.00,0.00,0.00
1368,232.671756,38.290076,53.740458,-0.095215,0.196777,0.896484,0.00,0.00,0.00
1369,246.083969,34.076336,51.305344,-0.101074,0.119141,0.862793,0.00,0.00,0.00
1370,250.129771,29.526718,48.641221,-0.088135,0.059570,0.831543,0.00,0.00,0.00
1371,250.129771,26.809160,47.244275,-0.073242,-0.004395,0.818359,0.00,0.00,0.00
1372,250.129771,24.496183,46.221374,-0.040283,-0.100342,0.778564,0.00,0.00,0.00
1373,250.129771,23.435115,46.022901,-0.031250,-0.165527,0.768066,0.00,0.00,0.00
1374,250.129771,23.511450,46.862595,-0.020020,-0.224121,0.748291,0.00,0.00,0.00
1375,250.129771,23.389313,47.671756,-0.052734,-0.264160,0.757080,0.00,0.00,0.00
1376,250.129771,22.557252,48.839695,-0.109375,-0.292480,0.769043,0.00,0.00,0.00
1377,250.129771,20.099237,49.763359,-0.180908,-0.345215,0.797119,0.00,0.00,0.00
1378,250.129771,16.740458,51.870229,-0.229980,-0.434814,0.841553,0.00,0.00,0.00
1379,250.129771,13.580153,57.083969,-0.274902,-0.516357,1.031738,0.00,0.00,0.00
1380,250.129771,10.847328,63.572519,-0.233643,-0.679443,0.929932,0.00,0.00,0.00
1381,250.129771,9.374046,72.969466,-0.173340,-0.782715,0.967285,0.00,0.00,0.00
1382,250.129771,9.572519,84.167939,-0.139648,-0.888184,0.930420,0.00,0.00,0.00
1383,250.129771,11.190840,93.770992,-0.162354,-0.960938,0.906494,0.00,0.00,0.00
1384,250.129771,12.557252,99.992366,-0.214355,-1.009766,0.876221,0.00,0.00,0.00
1385,250.129771,12.954198,104.854962,-0.223389,-1.068359,0.874512,0.00,0.00,0.00
1386,250.129771,13.549618,109.763359,-0.215332,-1.146484,0.885986,0.00,0.00,0.00
1387,250.129771,13.167939,115.366412,-0.228516,-1.245605,0.891357,0.00,0.00,0.00
1388,250.129771,11.305344,119.328244,-0.285889,-1.329590,0.875732,0.00,0.00,0.00
1389,250.129771,6.404580,124.076336,-0.377930,-1.491699,0.850342,0.00,0.00,0.00
1390,250.129771,-1.435115,127.480916,-0.454590,-1.590088,0.820801,0.00,0.00,0.00
1391,250.129771,-12.290076,129.763359,-0.539795,-1.679199,0.764893,0.00,0.00,0.00
1392,250.129771,-23.854962,130.938931,-0.584717,-1.729980,0.715576,0.00,0.00,0.00
1393,250.129771,-36.091603,132.305344,-0.614990,-1.740479,0.678223,0.00,0.00,0.00
1394,250.129771,-47.374046,132.870229,-0.620850,-1.745361,0.631836,0.00,0.00,0.00
1395,244.893130,-55.900763,134.450382,-0.603271,-1.790039,0.557617,0.00,0.00,0.00
1396,231.000000,-61.007634,135.541985,-0.599609,-1.850098,0.519775,0.00,0.00,0.00
1397,214.374046,-66.030534,137.603053,-0.619873,-1.987305,0.392334,0.00,0.00,0.00
1398,198.740458,-69.854962,139.145038,-0.650391,-2.000000,0.280273,0.00,0.00,0.00
1399,184.007634,-72.786260,140.251908,-0.664795,-2.000000,0.153809,0.00,0.00,0.00
1400,168.870229,-75.038168,141.015267,-0.620850,-2.000000,0.020264,0.00,0.00,0.00
1401,152.206107,-75.106870,142.022901,-0.521729,-2.000000,-0.114502,0.00,0.00,0.00
1402,133.030534,-72.419847,144.435115,-0.386230,-2.000000,-0.236084,0.00,0.00,0.00
1403,113.015267,-66.641221,147.206107,-0.241699,-2.000000,-0.314941,0.00,0.00,0.00
1404,90.656489,-58.274809,152.290076,-0.092773,-2.000000,-0.380859,0.00,0.00,0.00
1405,73.229008,-49.839695,156.839695,-0.020020,-2.000000,-0.410645,0.00,0.00,0.00
1406,56.641221,-41.137405,161.091603,-0.000732,-2.000000,-0.463867,0.00,0.00,0.00
1407,43.992366,-37.236641,162.770992,-0.041992,-2.000000,-0.441406,0.00,0.00,0.00
1408,38.480916,-28.755725,161.809160,-0.000488,-2.000000,-0.570801,0.00,0.00,0.00
1409,-9.244275,-78.396947,121.664122,-0.900391,-2.000000,-0.112305,0.00,0.00,0.00
1410,-3.381679,-72.076336,92.282443,-0.256348,-2.000000,-1.072754,0.00,0.00,0.00
1411,-25.656489,-76.931298,67.366412,0.336182,-2.000000,-1.048828,0.00,0.00,0.00
1412,-50.664122,-83.022901,49.312977,0.607422,-2.000000,-0.957031,0.00,0.00,0.00
1413,-66.541985,-64.328244,33.740458,0.817139,-2.000000,-1.179688,0.00,0.00,0.00
1414,-82.404580,-29.312977,24.587786,1.155762,-2.000000,-1.171143,0.00,0.00,0.00
1415,-114.396947,-10.106870,13.129771,0.837891,-2.000000,-1.127197,0.00,0.00,0.00
1416,-146.946565,11.664122,-8.251908,0.562256,-2.000000,-1.295654,0.00,0.00,0.00
1417,-179.328244,43.702290,-37.885496,0.622070,-2.000000,-1.634766,0.00,0.00,0.00
1418,-191.496183,58.396947,-58.167939,0.907227,-0.493164,-1.853516,0.00,0.00,0.00
1419,-224.519084,70.885496,-96.114504,-0.617432,0.904053,0.695801,0.00,0.00,0.00
1420,-249.748092,37.648855,-164.641221,-1.708740,-0.312988,1.904053,0.00,0.00,0.00
1421,-175.251908,-172.267176,-250.137405,-2.000000,-2.000000,1.999939,0.00,0.00,0.00
1422,-72.923664,-127.832061,-153.610687,-0.454102,-2.000000,-0.036621,0.00,0.00,0.00
1423,3.465649,-20.793893,-32.839695,0.685791,-2.000000,0.209473,0.00,0.00,0.00
1424,-2.099237,-34.748092,-7.458015,1.224365,-0.507080,1.516113,0.00,0.00,0.00
1425,4.099237,-35.519084,-44.824427,0.476318,0.556396,0.987061,0.00,0.00,0.00
1426,-14.763359,-65.152672,-61.847328,-0.408691,0.058105,1.248535,0.00,0.00,0.00
1427,-3.206107,-66.007634,-59.236641,-1.008789,-1.329346,0.860840,0.00,0.00,0.00
1428,14.045802,-36.572519,-32.412214,-0.839844,-1.351318,0.477539,0.00,0.00,0.00
1429,4.580153,-33.557252,-24.167939,-0.198975,-0.662354,0.518066,0.00,0.00,0.00
1430,12.419847,-27.335878,-20.335878,0.304199,-0.657227,0.974121,0.00,0.00,0.00
1431,16.488550,-18.389313,-15.435115,-0.060791,-0.703857,0.877686,0.00,0.00,0.00
1432,14.251908,-7.251908,-9.458015,-0.534912,-0.663330,0.627930,0.00,0.00,0.00
1433,7.870229,-10.992366,-7.366412,-0.382080,-0.525391,0.798340,0.00,0.00,0.00
1434,8.816794,-4.122137,-5.488550,-0.072266,-0.641113,0.832520,0.00,0.00,0.00
1435,8.381679,-0.061069,-2.274809,-0.118408,-0.628662,0.823730,0.00,0.00,0.00
1436,2.725191,0.351145,0.473282,-0.271729,-0.552490,0.837891,0.00,0.00,0.00
1437,0.725191,4.916031,1.938931,-0.253906,-0.566895,0.817871,0.00,0.00,0.00
1438,-1.725191,5.603053,3.435115,-0.188965,-0.574951,0.835938,0.00,0.00,0.00
1439,-3.198473,8.992366,5.076336,-0.239014,-0.578613,0.800781,0.00,0.00,0.00
1440,-4.122137,13.618321,6.870229,-0.286621,-0.570801,0.816650,0.00,0.00,0.00
1441,-6.916031,14.961832,8.167939,-0.285645,-0.558838,0.808105,0.00,0.00,0.00
1442,-7.160305,17.458015,8.977099,-0.318359,-0.580566,0.766357,0.00,0.00,0.00
1443,-8.534351,18.137405,9.305344,-0.348633,-0.554199,0.787354,0.00,0.00,0.00
1444,-9.549618,19.618321,9.648855,-0.336426,-0.568604,0.760010,0.00,0.00,0.00
1445,-9.854962,19.893130,9.801527,-0.346436,-0.572998,0.754395,0.00,0.00,0.00
1446,-10.633588,20.519084,9.862595,-0.347412,-0.561523,0.748779,0.00,0.00,0.00
1447,-10.885496,20.427481,9.732824,-0.356689,-0.562988,0.741699,0.00,0.00,0.00
1448,-11.129771,20.641221,9.435115,-0.374756,-0.554199,0.743408,0.00,0.00,0.00
1449,-11.931298,22.175573,10.603053,-0.322510,-0.551025,0.753662,0.00,0.00,0.00
1450,-10.213740,22.893130,9.954198,-0.364502,-0.589355,0.758301,0.00,0.00,0.00
1451,-13.045802,23.969466,11.450382,-0.338867,-0.571533,0.709473,0.00,0.00,0.00
1452,-14.076336,24.816794,12.030534,-0.309326,-0.540283,0.771240,0.00,0.00,0.00
1453,-14.503817,24.763359,12.458015,-0.328613,-0.567627,0.749023,0.00,0.00,0.00
1454,-14.885496,25.923664,12.702290,-0.340820,-0.567139,0.743164,0.00,0.00,0.00
1455,-15.000000,26.083969,12.931298,-0.367432,-0.560059,0.731689,0.00,0.00,0.00
1456,-14.809160,26.129771,13.038168,-0.359375,-0.555908,0.723877,0.00,0.00,0.00
1457,-13.740458,26.450382,12.801527,-0.362793,-0.562500,0.729736,0.00,0.00,0.00
1458,-13.465649,26.015267,12.419847,-0.361572,-0.559814,0.720459,0.00,0.00,0.00
1459,-12.969466,25.076336,12.106870,-0.367432,-0.561279,0.709229,0.00,0.00,0.00
1460,-12.335878,23.183206,11.312977,-0.393066,-0.554932,0.698975,0.00,0.00,0.00
1461,-11.389313,21.526718,10.122137,-0.413574,-0.548340,0.683594,0.00,0.00,0.00
1462,-10.366412,18.702290,8.480916,-0.421631,-0.539062,0.678223,0.00,0.00,0.00
1463,-9.526718,16.381679,6.908397,-0.428467,-0.541748,0.683838,0.00,0.00,0.00
1464,-8.832061,14.229008,5.366412,-0.423828,-0.536865,0.680176,0.00,0.00,0.00
1465,-8.091603,11.763359,3.732824,-0.430908,-0.541016,0.672119,0.00,0.00,0.00
1466,-7.137405,9.648855,2.045802,-0.426514,-0.545410,0.683350,0.00,0.00,0.00
1467,-6.091603,7.198473,0.419847,-0.430664,-0.555908,0.662598,0.00,0.00,0.00
1468,-4.618321,4.755725,-1.190840,-0.433594,-0.552490,0.667236,0.00,0.00,0.00
1469,-3.198473,2.694656,-2.809160,-0.431641,-0.558838,0.674072,0.00,0.00,0.00
1470,-1.213740,0.801527,-3.793893,-0.418945,-0.562256,0.648193,0.00,0.00,0.00
1471,0.396947,-1.564885,-5.053435,-0.438965,-0.557373,0.649414,0.00,0.00,0.00
1472,1.748092,-4.038168,-6.145038,-0.428223,-0.559326,0.645752,0.00,0.00,0.00
1473,3.473282,-5.656489,-7.335878,-0.432617,-0.564697,0.650146,0.00,0.00,0.00
1474,5.396947,-8.412214,-8.656489,-0.447510,-0.557617,0.644531,0.00,0.00,0.00
1475,6.725191,-11.572519,-10.190840,-0.441162,-0.552734,0.673828,0.00,0.00,0.00
1476,7.389313,-13.687023,-11.282443,-0.421387,-0.560303,0.666992,0.00,0.00,0.00
1477,7.312977,-14.755725,-11.778626,-0.404785,-0.554688,0.691895,0.00,0.00,0.00
1478,7.916031,-16.160305,-12.244275,-0.400635,-0.561035,0.675537,0.00,0.00,0.00
1479,8.282443,-16.992366,-12.427481,-0.395996,-0.564209,0.694092,0.00,0.00,0.00
1480,8.503817,-17.656489,-12.832061,-0.379639,-0.568604,0.716797,0.00,0.00,0.00
1481,8.748092,-17.450382,-12.549618,-0.357422,-0.562744,0.730469,0.00,0.00,0.00
1482,9.396947,-16.954198,-12.251908,-0.354492,-0.572021,0.830322,0.00,0.00,0.00
1483,8.374046,-16.328244,-11.870229,-0.341064,-0.564941,0.743164,0.00,0.00,0.00
1484,7.534351,-15.977099,-11.526718,-0.329346,-0.557129,0.747314,0.00,0.00,0.00
1485,6.496183,-15.610687,-11.473282,-0.342773,-0.550781,0.757568,0.00,0.00,0.00
1486,5.465649,-15.000000,-11.526718,-0.354492,-0.552246,0.751709,0.00,0.00,0.00
1487,4.343511,-14.129771,-11.358779,-0.342285,-0.553955,0.758545,0.00,0.00,0.00
1488,3.404580,-13.190840,-11.007634,-0.330566,-0.566406,0.760010,0.00,0.00,0.00
1489,1.717557,-12.114504,-10.229008,-0.316162,-0.553711,0.781738,0.00,0.00,0.00
1490,0.381679,-10.961832,-9.847328,-0.312500,-0.566895,0.770264,0.00,0.00,0.00
1491,-1.503817,-8.893130,-9.045802,-0.303223,-0.554688,0.789307,0.00,0.00,0.00
1492,-3.320611,-7.465649,-8.160305,-0.308594,-0.559570,0.783203,0.00,0.00,0.00
1493,-5.206107,-5.145038,-7.511450,-0.301270,-0.549072,0.779541,0.00,0.00,0.00
1494,-7.297710,-3.442748,-7.404580,-0.315430,-0.549316,0.791504,0.00,0.00,0.00
1495,-9.648855,-1.358779,-6.961832,-0.311035,-0.554688,0.800781,0.00,0.00,0.00
1496,-12.564885,1.068702,-6.305344,-0.302002,-0.550293,0.811768,0.00,0.00,0.00
1497,-15.290076,3.213740,-6.076336,-0.321777,-0.549316,0.793701,0.00,0.00,0.00
1498,-17.167939,4.450382,-6.229008,-0.328613,-0.541016,0.797607,0.00,0.00,0.00
1499,-19.969466,6.450382,-6.427481,-0.353027,-0.545410,0.792236,0.00,0.00,0.00
1500,-22.557252,8.129771,-6.961832,-0.353027,-0.537842,0.801270,0.00,0.00,0.00
1501,-26.320611,10.091603,-7.236641,-0.346191,-0.517578,0.823242,0.00,0.00,0.00
1502,-29.916031,12.244275,-7.488550,-0.336670,-0.535400,0.819092,0.00,0.00,0.00
1503,-33.473282,14.007634,-7.809160,-0.353027,-0.537354,0.815430,0.00,0.00,0.00
1504,-36.839695,15.641221,-7.977099,-0.343262,-0.549316,0.807373,0.00,0.00,0.00
1505,-40.229008,16.916031,-8.236641,-0.353027,-0.546875,0.809082,0.00,0.00,0.00
1506,-44.259542,18.564885,-8.793893,-0.363037,-0.529541,0.825439,0.00,0.00,0.00
1507,-47.854962,19.419847,-10.595420,-0.390381,-0.510254,0.834473,0.00,0.00,0.00
1508,-52.984733,21.091603,-12.305344,-0.365479,-0.537109,0.828125,0.00,0.00,0.00
1509,-56.297710,21.923664,-12.404580,-0.373535,-0.559814,0.796387,0.00,0.00,0.00
1510,-59.862595,22.038168,-13.114504,-0.385742,-0.541748,0.803955,0.00,0.00,0.00
1511,-63.335878,22.732824,-14.664122,-0.402832,-0.548340,0.799805,0.00,0.00,0.00
1512,-67.435115,23.587786,-16.167939,-0.442139,-0.533691,0.817871,0.00,0.00,0.00
1513,-72.267176,25.511450,-18.160305,-0.415283,-0.536377,0.830566,0.00,0.00,0.00
1514,-77.030534,26.618321,-19.633588,-0.439453,-0.549316,0.825195,0.00,0.00,0.00
1515,-81.725191,26.969466,-21.160305,-0.422852,-0.548340,0.839844,0.00,0.00,0.00
1516,-87.610687,27.145038,-22.748092,-0.426270,-0.560303,0.856934,0.00,0.00,0.00
1517,-94.129771,27.572519,-24.519084,-0.423584,-0.556885,0.875977,0.00,0.00,0.00
1518,-101.908397,27.198473,-26.412214,-0.421631,-0.554932,0.912354,0.00,0.00,0.00
1519,-111.175573,27.175573,-27.870229,-0.378662,-0.563721,0.948486,0.00,0.00,0.00
1520,-119.427481,29.297710,-30.458015,-0.361816,-0.553711,1.001709,0.00,0.00,0.00
1521,-133.854962,29.557252,-34.045802,-0.486328,-0.509521,1.149414,0.00,0.00,0.00
1522,-151.961832,27.465649,-40.618321,-0.649170,-0.464844,1.203369,0.00,0.00,0.00
1523,-169.045802,26.312977,-49.992366,-0.813232,-0.459473,1.180664,0.00,0.00,0.00
1524,-182.709924,23.832061,-61.114504,-0.939697,-0.457764,1.191162,0.00,0.00,0.00
1525,-198.877863,19.007634,-76.450382,-0.975098,-0.464355,1.190186,0.00,0.00,0.00
1526,-216.877863,15.893130,-91.854962,-0.899658,-0.532959,1.227783,0.00,0.00,0.00
1527,-234.862595,13.488550,-108.274809,-0.842041,-0.653320,1.308350,0.00,0.00,0.00
1528,-250.137405,14.992366,-123.564885,-0.818115,-0.719482,1.312256,0.00,0.00,0.00
1529,-250.137405,20.122137,-134.267176,-0.876221,-0.790527,1.400146,0.00,0.00,0.00
1530,-250.137405,26.297710,-145.511450,-1.002930,-0.875732,1.449951,0.00,0.00,0.00
1531,-250.137405,29.671756,-156.969466,-1.185547,-1.092529,1.510742,0.00,0.00,0.00
1532,-250.137405,18.900763,-172.793893,-1.371338,-1.367188,1.541748,0.00,0.00,0.00
1533,-250.137405,9.656489,-185.122137,-1.335693,-1.474121,1.430420,0.00,0.00,0.00
1534,-250.137405,7.343511,-194.022901,-1.139160,-1.432861,1.198242,0.00,0.00,0.00
1535,-250.137405,8.679389,-196.343511,-0.858154,-1.202148,1.028564,0.00,0.00,0.00
1536,-250.137405,18.908397,-188.580153,-0.723633,-1.093506,1.011475,0.00,0.00,0.00
