Packet number,Gyroscope X (deg/s),Gyroscope Y (deg/s),Gyroscope Z (deg/s),Accelerometer X (g),Accelerometer Y (g),Accelerometer Z (g),Magnetometer X (G),Magnetometer Y (G),Magnetometer Z (G)
1,-0.129771,0.007634,-0.389313,-0.113525,-0.960938,-0.212891,0.00,0.00,0.00
2,-0.259542,-0.106870,-0.328244,-0.113281,-0.956299,-0.211670,0.00,0.00,0.00
3,-0.137405,-0.038168,-0.236641,-0.109863,-0.964844,-0.212646,0.00,0.00,0.00
4,-0.007634,-0.091603,-0.106870,-0.113037,-0.958252,-0.215088,0.00,0.00,0.00
5,-0.206107,-0.068702,-0.007634,-0.117920,-0.959473,-0.219727,0.00,0.00,0.00
6,-0.083969,-0.206107,-0.198473,-0.116943,-0.963623,-0.214600,0.00,0.00,0.00
7,-0.122137,0.038168,-0.015267,-0.116699,-0.961670,-0.218262,0.00,0.00,0.00
8,-0.007634,0.007634,0.061069,-0.116211,-0.958740,-0.218994,0.00,0.00,0.00
9,-0.145038,-0.015267,-0.007634,-0.116455,-0.964844,-0.216064,0.00,0.00,0.00
10,-0.068702,0.122137,0.007634,-0.115723,-0.960449,-0.211670,0.00,0.00,0.00
11,0.198473,-0.244275,-0.167939,-0.119629,-0.960449,-0.218262,0.00,0.00,0.00
12,-0.221374,-0.007634,0.038168,-0.125732,-0.963379,-0.209717,0.00,0.00,0.00
13,-0.106870,-0.145038,-0.114504,-0.115234,-0.965088,-0.214844,0.00,0.00,0.00
14,-0.038168,-0.175573,-0.083969,-0.116699,-0.960938,-0.215332,0.00,0.00,0.00
15,-0.083969,0.038168,-0.129771,-0.113525,-0.959717,-0.213135,0.00,0.00,0.00
16,-0.114504,-0.175573,-0.312977,-0.115967,-0.960449,-0.205078,0.00,0.00,0.00
17,-0.229008,0.160305,-0.244275,-0.113525,-0.959473,-0.214600,0.00,0.00,0.00
18,-0.053435,-0.251908,-0.282443,-0.113770,-0.963135,-0.214844,0.00,0.00,0.00
19,-0.091603,-0.198473,-0.160305,-0.112549,-0.964844,-0.216797,0.00,0.00,0.00
20,-0.152672,-0.076336,-0.244275,-0.118652,-0.959473,-0.222656,0.00,0.00,0.00
21,-0.198473,-0.137405,-0.175573,-0.122559,-0.956299,-0.218994,0.00,0.00,0.00
22,-0.183206,-0.122137,-0.221374,-0.121582,-0.955322,-0.217773,0.00,0.00,0.00
23,-0.038168,-0.053435,-0.251908,-0.115234,-0.963623,-0.219482,0.00,0.00,0.00
24,-0.175573,-0.183206,-0.358779,-0.114258,-0.966553,-0.220703,0.00,0.00,0.00
25,0.000000,-0.160305,-0.213740,-0.119629,-0.957764,-0.209229,0.00,0.00,0.00
26,-0.061069,-0.076336,-0.312977,-0.119141,-0.958984,-0.214111,0.00,0.00,0.00
27,0.007634,-0.129771,-0.267176,-0.111816,-0.958740,-0.209961,0.00,0.00,0.00
28,-0.335878,-0.083969,-0.419847,-0.122559,-0.959717,-0.215820,0.00,0.00,0.00
29,-0.030534,-0.152672,-0.351145,-0.117920,-0.959229,-0.207275,0.00,0.00,0.00
30,-0.114504,0.160305,-0.465649,-0.119629,-0.958740,-0.215820,0.00,0.00,0.00
31,-0.320611,-0.106870,-0.427481,-0.116455,-0.963623,-0.209229,0.00,0.00,0.00
32,-0.267176,-0.122137,-0.389313,-0.110596,-0.962158,-0.218018,0.00,0.00,0.00
33,-0.198473,-0.152672,-0.213740,-0.119873,-0.957520,-0.210938,0.00,0.00,0.00
34,-0.297710,-0.045802,-0.412214,-0.115967,-0.962158,-0.221436,0.00,0.00,0.00
35,-0.312977,-0.083969,-0.427481,-0.115967,-0.957520,-0.213623,0.00,0.00,0.00
36,-0.251908,-0.389313,-0.282443,-0.112549,-0.965820,-0.212158,0.00,0.00,0.00
37,-0.274809,-0.335878,-0.297710,-0.112793,-0.961426,-0.213867,0.00,0.00,0.00
38,-0.259542,0.038168,-0.320611,-0.110107,-0.960693,-0.220215,0.00,0.00,0.00
39,-0.312977,0.045802,-0.274809,-0.109619,-0.957275,-0.211426,0.00,0.00,0.00
40,-0.083969,-0.068702,-0.236641,-0.115723,-0.965332,-0.215088,0.00,0.00,0.00
41,-0.175573,0.045802,0.045802,-0.112061,-0.955322,-0.213623,0.00,0.00,0.00
42,-0.198473,0.053435,0.015267,-0.119141,-0.962891,-0.201660,0.00,0.00,0.00
43,-0.274809,-0.061069,-0.167939,-0.117188,-0.965820,-0.212158,0.00,0.00,0.00
44,-0.282443,-0.030534,-0.312977,-0.122070,-0.962891,-0.214600,0.00,0.00,0.00
45,-0.328244,0.007634,-0.229008,-0.116211,-0.961426,-0.210938,0.00,0.00,0.00
46,-0.190840,-0.351145,-0.030534,-0.120605,-0.962158,-0.208008,0.00,0.00,0.00
47,-0.251908,-0.229008,-0.236641,-0.114746,-0.957764,-0.210938,0.00,0.00,0.00
48,-0.229008,-0.213740,-0.091603,-0.109131,-0.961182,-0.214111,0.00,0.00,0.00
49,-0.328244,-0.122137,-0.137405,-0.119873,-0.965332,-0.220703,0.00,0.00,0.00
50,-0.007634,-0.114504,-0.175573,-0.114990,-0.955566,-0.215820,0.00,0.00,0.00
51,-0.259542,-0.068702,-0.290076,-0.118164,-0.963135,-0.223633,0.00,0.00,0.00
52,-0.328244,0.030534,-0.137405,-0.120117,-0.957764,-0.208252,0.00,0.00,0.00
53,-0.419847,0.137405,-0.389313,-0.120117,-0.956055,-0.210205,0.00,0.00,0.00
54,-0.305344,-0.038168,-0.221374,-0.115967,-0.961426,-0.206299,0.00,0.00,0.00
55,-0.465649,-0.083969,-0.206107,-0.114746,-0.956543,-0.214355,0.00,0.00,0.00
56,-0.122137,-0.068702,-0.122137,-0.114258,-0.958496,-0.208984,0.00,0.00,0.00
57,-0.221374,0.030534,-0.175573,-0.115234,-0.958984,-0.220703,0.00,0.00,0.00
58,-0.427481,0.251908,0.022901,-0.120605,-0.959473,-0.214355,0.00,0.00,0.00
59,-0.274809,0.038168,-0.267176,-0.114014,-0.958740,-0.208496,0.00,0.00,0.00
60,-0.145038,0.122137,0.015267,-0.114502,-0.962646,-0.219971,0.00,0.00,0.00
61,-0.412214,0.160305,-0.015267,-0.112549,-0.961914,-0.206543,0.00,0.00,0.00
62,-0.374046,0.091603,-0.175573,-0.113770,-0.963623,-0.219727,0.00,0.00,0.00
63,-0.183206,0.015267,-0.015267,-0.117676,-0.968262,-0.211182,0.00,0.00,0.00
64,-0.038168,-0.114504,-0.106870,-0.114746,-0.956299,-0.220703,0.00,0.00,0.00
65,-0.282443,-0.282443,0.022901,-0.119141,-0.961182,-0.214600,0.00,0.00,0.00
66,-0.312977,-0.251908,-0.221374,-0.114258,-0.962891,-0.214600,0.00,0.00,0.00
67,-0.236641,-0.442748,-0.106870,-0.111084,-0.958496,-0.219482,0.00,0.00,0.00
68,-0.267176,-0.122137,-0.259542,-0.117188,-0.963867,-0.215820,0.00,0.00,0.00
69,-0.374046,0.015267,-0.198473,-0.114746,-0.961670,-0.226318,0.00,0.00,0.00
70,-0.335878,0.503817,-0.206107,-0.120850,-0.958008,-0.215088,0.00,0.00,0.00
71,-0.419847,0.511450,-0.251908,-0.114990,-0.964600,-0.219238,0.00,0.00,0.00
72,-0.351145,1.167939,-0.030534,-0.101074,-0.963623,-0.219727,0.00,0.00,0.00
73,-0.083969,0.709924,0.068702,-0.106201,-0.963867,-0.230469,0.00,0.00,0.00
74,-0.076336,1.458015,-0.045802,-0.123047,-0.966064,-0.199951,0.00,0.00,0.00
75,-0.290076,-0.305344,-0.053435,-0.132080,-0.955811,-0.208252,0.00,0.00,0.00
76,-0.580153,-0.099237,-0.687023,-0.127686,-0.959473,-0.209229,0.00,0.00,0.00
77,-0.511450,0.297710,-0.732824,-0.120117,-0.965576,-0.224365,0.00,0.00,0.00
78,-0.450382,-0.389313,-0.755725,-0.118408,-0.967041,-0.222412,0.00,0.00,0.00
79,-0.603053,0.160305,-0.618321,-0.116455,-0.965820,-0.218262,0.00,0.00,0.00
80,-0.389313,-0.061069,-0.687023,-0.117920,-0.966064,-0.212158,0.00,0.00,0.00
81,-0.725191,-0.076336,-0.900763,-0.113525,-0.957275,-0.208984,0.00,0.00,0.00
82,-0.656489,0.000000,-0.809160,-0.104004,-0.958984,-0.208008,0.00,0.00,0.00
83,-0.610687,0.152672,-0.786260,-0.108154,-0.963135,-0.220947,0.00,0.00,0.00
84,-0.419847,0.328244,-0.801527,-0.119629,-0.966064,-0.224121,0.00,0.00,0.00
85,-0.381679,0.923664,-0.809160,-0.124268,-0.958496,-0.207031,0.00,0.00,0.00
86,-0.641221,0.381679,-0.854962,-0.125488,-0.952393,-0.209473,0.00,0.00,0.00
87,-0.832061,0.580153,-1.106870,-0.114990,-0.960938,-0.207031,0.00,0.00,0.00
88,-0.427481,0.374046,-1.106870,-0.117676,-0.965576,-0.232422,0.00,0.00,0.00
89,-0.381679,0.465649,-1.412214,-0.119385,-0.970459,-0.218994,0.00,0.00,0.00
90,-0.458015,1.068702,-1.167939,-0.119141,-0.960693,-0.203857,0.00,0.00,0.00
91,-0.755725,0.442748,-1.465649,-0.118408,-0.961182,-0.199463,0.00,0.00,0.00
92,-0.839695,0.664122,-1.763359,-0.111816,-0.967773,-0.202148,0.00,0.00,0.00
93,-0.992366,0.351145,-1.740458,-0.126465,-0.968018,-0.211426,0.00,0.00,0.00
94,-0.946565,0.267176,-2.038168,-0.124756,-0.960938,-0.212891,0.00,0.00,0.00
95,-0.992366,0.244275,-2.274809,-0.116943,-0.965576,-0.208496,0.00,0.00,0.00
96,-1.404580,0.549618,-2.366412,-0.118408,-0.967529,-0.207520,0.00,0.00,0.00
97,-1.000000,1.305344,-2.595420,-0.107666,-0.978271,-0.211426,0.00,0.00,0.00
98,-1.038168,1.473282,-2.541985,-0.105713,-0.968994,-0.207520,0.00,0.00,0.00
99,-1.167939,1.343511,-3.015267,-0.113037,-0.971436,-0.222412,0.00,0.00,0.00
100,-1.587786,1.603053,-2.862595,-0.125000,-0.965576,-0.213135,0.00,0.00,0.00
101,-1.709924,1.885496,-3.259542,-0.121826,-0.955322,-0.197998,0.00,0.00,0.00
102,-2.106870,0.984733,-3.580153,-0.131348,-0.954102,-0.202148,0.00,0.00,0.00
103,-2.610687,0.618321,-4.267176,-0.135986,-0.958252,-0.225098,0.00,0.00,0.00
104,-2.633588,1.862595,-4.732824,-0.124756,-0.970947,-0.206055,0.00,0.00,0.00
105,-2.625954,1.274809,-5.000000,-0.134033,-0.973877,-0.216064,0.00,0.00,0.00
106,-3.091603,0.610687,-4.984733,-0.120117,-0.980713,-0.205566,0.00,0.00,0.00
107,-2.977099,1.824427,-5.557252,-0.108154,-0.979004,-0.205078,0.00,0.00,0.00
108,-3.328244,2.480916,-5.465649,-0.101074,-0.974365,-0.189941,0.00,0.00,0.00
109,-3.610687,2.824427,-5.496183,-0.098633,-0.976318,-0.191406,0.00,0.00,0.00
110,-3.938931,2.778626,-5.572519,-0.098633,-0.968994,-0.190186,0.00,0.00,0.00
111,-3.847328,2.679389,-5.595420,-0.097656,-0.975830,-0.203857,0.00,0.00,0.00
112,-3.908397,2.511450,-5.671756,-0.088867,-0.974365,-0.199219,0.00,0.00,0.00
113,-4.190840,2.221374,-6.007634,-0.103516,-0.967773,-0.222168,0.00,0.00,0.00
114,-3.977099,1.900763,-5.603053,-0.119141,-0.953613,-0.213379,0.00,0.00,0.00
115,-3.832061,1.435115,-5.938931,-0.129150,-0.949463,-0.225830,0.00,0.00,0.00
116,-3.519084,0.328244,-6.221374,-0.136230,-0.939941,-0.225830,0.00,0.00,0.00
117,-3.824427,0.190840,-6.557252,-0.148926,-0.943115,-0.239258,0.00,0.00,0.00
118,-3.908397,0.740458,-6.961832,-0.133301,-0.947998,-0.239990,0.00,0.00,0.00
119,-3.793893,0.679389,-7.106870,-0.121094,-0.946777,-0.239502,0.00,0.00,0.00
120,-3.557252,1.687023,-7.198473,-0.119141,-0.955566,-0.238770,0.00,0.00,0.00
121,-3.625954,2.564885,-7.541985,-0.108887,-0.958008,-0.233887,0.00,0.00,0.00
122,-3.557252,3.465649,-7.343511,-0.100586,-0.958740,-0.232178,0.00,0.00,0.00
123,-3.442748,4.396947,-7.381679,-0.102783,-0.956299,-0.220703,0.00,0.00,0.00
124,-3.603053,4.977099,-7.458015,-0.103271,-0.956055,-0.219971,0.00,0.00,0.00
125,-3.641221,5.816794,-7.503817,-0.102783,-0.950684,-0.215820,0.00,0.00,0.00
126,-3.809160,5.954198,-7.610687,-0.106445,-0.955078,-0.215820,0.00,0.00,0.00
127,-4.030534,5.198473,-7.664122,-0.109131,-0.946289,-0.214600,0.00,0.00,0.00
128,-4.297710,4.435115,-7.618321,-0.107910,-0.944824,-0.220215,0.00,0.00,0.00
129,-4.190840,3.748092,-7.381679,-0.097900,-0.947998,-0.223633,0.00,0.00,0.00
130,-4.274809,3.358779,-7.503817,-0.095459,-0.950684,-0.229736,0.00,0.00,0.00
131,-4.511450,2.938931,-7.488550,-0.099609,-0.951172,-0.219727,0.00,0.00,0.00
132,-4.129771,2.427481,-7.229008,-0.103760,-0.944580,-0.224365,0.00,0.00,0.00
133,-4.114504,2.091603,-7.290076,-0.107422,-0.951660,-0.228516,0.00,0.00,0.00
134,-4.458015,2.030534,-7.312977,-0.101318,-0.950195,-0.227295,0.00,0.00,0.00
135,-4.236641,2.267176,-7.022901,-0.094727,-0.951660,-0.235840,0.00,0.00,0.00
136,-4.137405,2.335878,-7.099237,-0.097168,-0.949951,-0.239502,0.00,0.00,0.00
137,-3.931298,2.801527,-6.984733,-0.094727,-0.958008,-0.232422,0.00,0.00,0.00
138,-4.206107,2.740458,-7.244275,-0.088135,-0.961670,-0.227051,0.00,0.00,0.00
139,-4.106870,2.687023,-7.274809,-0.091064,-0.960938,-0.218994,0.00,0.00,0.00
140,-4.419847,2.709924,-7.335878,-0.092773,-0.969971,-0.209473,0.00,0.00,0.00
141,-4.335878,2.305344,-7.404580,-0.092529,-0.958008,-0.217041,0.00,0.00,0.00
142,-4.595420,1.740458,-7.511450,-0.095947,-0.961670,-0.213867,0.00,0.00,0.00
143,-4.641221,1.160305,-7.778626,-0.095703,-0.960205,-0.227051,0.00,0.00,0.00
144,-5.007634,0.877863,-7.977099,-0.104736,-0.958984,-0.219482,0.00,0.00,0.00
145,-5.145038,0.900763,-8.389313,-0.110352,-0.950439,-0.218506,0.00,0.00,0.00
146,-5.572519,0.381679,-8.526718,-0.114502,-0.943848,-0.220459,0.00,0.00,0.00
147,-6.114504,0.610687,-9.045802,-0.113037,-0.951904,-0.220459,0.00,0.00,0.00
148,-6.038168,0.625954,-9.580153,-0.098877,-0.951904,-0.213867,0.00,0.00,0.00
149,-6.458015,0.312977,-10.068702,-0.106445,-0.951660,-0.221436,0.00,0.00,0.00
150,-6.564885,-0.068702,-10.427481,-0.105713,-0.942383,-0.215088,0.00,0.00,0.00
151,-6.908397,-0.587786,-10.885496,-0.118408,-0.939941,-0.220703,0.00,0.00,0.00
152,-7.572519,-1.427481,-11.351145,-0.120605,-0.941162,-0.232178,0.00,0.00,0.00
153,-7.557252,-1.740458,-11.908397,-0.138916,-0.944824,-0.244385,0.00,0.00,0.00
154,-8.900763,-1.244275,-12.641221,-0.143311,-0.945557,-0.215332,0.00,0.00,0.00
155,-9.625954,-1.312977,-13.198473,-0.129395,-0.946045,-0.221191,0.00,0.00,0.00
156,-10.038168,-2.351145,-13.625954,-0.112061,-0.952881,-0.216064,0.00,0.00,0.00
157,-10.152672,-2.312977,-14.351145,-0.085449,-0.951172,-0.234619,0.00,0.00,0.00
158,-10.709924,-3.114504,-14.435115,-0.086182,-0.962646,-0.219727,0.00,0.00,0.00
159,-10.916031,-2.954198,-14.595420,-0.061523,-0.965332,-0.222168,0.00,0.00,0.00
160,-10.412214,-2.160305,-15.290076,-0.047852,-0.924561,-0.238037,0.00,0.00,0.00
161,-10.488550,-3.793893,-14.320611,-0.066650,-0.954590,-0.232178,0.00,0.00,0.00
162,-10.877863,-3.778626,-14.488550,-0.086914,-0.955811,-0.239990,0.00,0.00,0.00
163,-9.206107,-2.244275,-15.404580,-0.059814,-0.937256,-0.246094,0.00,0.00,0.00
164,-10.679389,-4.190840,-14.885496,-0.079834,-0.947021,-0.241699,0.00,0.00,0.00
165,-9.648855,-4.030534,-15.541985,-0.077881,-0.969971,-0.245605,0.00,0.00,0.00
166,-10.709924,-4.709924,-15.068702,-0.077637,-0.971680,-0.251953,0.00,0.00,0.00
167,-10.374046,-4.717557,-15.595420,-0.065918,-0.969727,-0.240723,0.00,0.00,0.00
168,-9.770992,-5.007634,-15.091603,-0.048096,-0.956299,-0.246094,0.00,0.00,0.00
169,-10.984733,-4.832061,-14.221374,-0.042725,-0.960938,-0.235352,0.00,0.00,0.00
170,-8.541985,-2.977099,-14.381679,0.001465,-0.988525,-0.220215,0.00,0.00,0.00
171,-11.221374,-4.061069,-12.381679,-0.004395,-0.972168,-0.229736,0.00,0.00,0.00
172,-10.671756,-3.664122,-11.572519,0.017334,-0.967773,-0.234619,0.00,0.00,0.00
173,-9.839695,-3.587786,-10.221374,0.035889,-0.978027,-0.238037,0.00,0.00,0.00
174,-10.648855,-3.916031,-8.740458,0.008545,-0.982422,-0.252441,0.00,0.00,0.00
175,-7.480916,-1.847328,-8.595420,0.041504,-0.984619,-0.256104,0.00,0.00,0.00
176,-10.488550,-3.648855,-6.587786,-0.004395,-0.976562,-0.261475,0.00,0.00,0.00
177,-9.389313,-3.419847,-5.816794,-0.013672,-0.992920,-0.277588,0.00,0.00,0.00
178,-6.694656,-2.145038,-5.549618,0.003418,-0.994385,-0.256348,0.00,0.00,0.00
179,-9.717557,-2.167939,-4.091603,-0.031738,-0.989990,-0.268555,0.00,0.00,0.00
180,-8.557252,-2.480916,-3.320611,-0.015137,-0.980957,-0.277832,0.00,0.00,0.00
181,-8.244275,-2.152672,-2.725191,0.009766,-0.974365,-0.271729,0.00,0.00,0.00
182,-4.694656,1.335878,-2.648855,0.045898,-0.954590,-0.251709,0.00,0.00,0.00
183,-8.740458,1.137405,-0.244275,-0.017334,-0.972656,-0.268066,0.00,0.00,0.00
184,-7.595420,1.557252,0.648855,-0.011719,-0.979492,-0.251709,0.00,0.00,0.00
185,-7.229008,2.396947,1.480916,-0.023193,-0.960693,-0.263184,0.00,0.00,0.00
186,-6.954198,3.091603,1.938931,-0.020996,-0.955078,-0.275635,0.00,0.00,0.00
187,-5.259542,2.404580,3.183206,-0.019531,-0.971436,-0.270264,0.00,0.00,0.00
188,-6.480916,3.198473,3.259542,-0.072510,-0.992432,-0.286621,0.00,0.00,0.00
189,-6.091603,3.244275,2.984733,-0.068115,-0.979248,-0.274170,0.00,0.00,0.00
190,-5.633588,3.358779,2.816794,-0.067383,-0.957031,-0.289062,0.00,0.00,0.00
191,-5.832061,3.549618,2.877863,-0.066406,-0.955078,-0.287354,0.00,0.00,0.00
192,-4.778626,5.450382,0.679389,-0.038574,-0.877197,-0.272461,0.00,0.00,0.00
193,-6.259542,1.748092,3.770992,-0.036621,-0.953369,-0.264893,0.00,0.00,0.00
194,-5.427481,1.656489,3.541985,-0.062012,-0.963379,-0.271729,0.00,0.00,0.00
195,-5.137405,1.748092,3.458015,-0.038330,-0.951172,-0.261963,0.00,0.00,0.00
196,-5.488550,2.549618,3.618321,-0.045410,-0.941162,-0.261230,0.00,0.00,0.00
197,-5.900763,4.572519,3.916031,-0.040527,-0.944824,-0.243408,0.00,0.00,0.00
198,-6.152672,4.770992,3.938931,-0.055176,-0.940674,-0.213623,0.00,0.00,0.00
199,-6.702290,5.977099,3.664122,-0.063965,-0.946777,-0.208008,0.00,0.00,0.00
200,-6.267176,5.053435,3.977099,-0.053223,-0.962158,-0.206787,0.00,0.00,0.00
201,-9.114504,6.816794,4.137405,-0.123047,-0.981445,-0.238770,0.00,0.00,0.00
202,-9.702290,6.282443,2.488550,-0.088135,-0.949219,-0.197266,0.00,0.00,0.00
203,-9.206107,5.251908,1.312977,-0.069580,-0.963135,-0.174561,0.00,0.00,0.00
204,-12.931298,5.213740,2.183206,-0.121826,-0.970459,-0.217529,0.00,0.00,0.00
205,-12.458015,6.488550,-1.396947,-0.049316,-0.891602,-0.226074,0.00,0.00,0.00
206,-13.618321,2.458015,0.877863,-0.052734,-0.957520,-0.238281,0.00,0.00,0.00
207,-13.297710,3.305344,0.358779,-0.096680,-0.975098,-0.269043,0.00,0.00,0.00
208,-10.740458,4.083969,-2.381679,-0.067139,-0.943848,-0.271973,0.00,0.00,0.00
209,-13.763359,2.236641,-0.526718,-0.134521,-0.941650,-0.307373,0.00,0.00,0.00
210,-12.816794,3.167939,-1.381679,-0.113037,-0.937256,-0.306152,0.00,0.00,0.00
211,-12.236641,3.045802,-1.900763,-0.050781,-0.939453,-0.281006,0.00,0.00,0.00
212,-13.053435,4.557252,-0.740458,-0.082275,-0.963623,-0.294189,0.00,0.00,0.00
213,-11.946565,8.625954,-3.358779,-0.017822,-0.897461,-0.259521,0.00,0.00,0.00
214,-11.755725,5.816794,-1.312977,-0.012451,-0.961182,-0.252441,0.00,0.00,0.00
215,-12.603053,7.015267,-0.496183,-0.076172,-0.974854,-0.272461,0.00,0.00,0.00
216,-9.717557,10.236641,-4.183206,-0.011230,-0.950928,-0.280273,0.00,0.00,0.00
217,-12.938931,6.229008,-0.549618,-0.058838,-0.975586,-0.308350,0.00,0.00,0.00
218,-11.717557,5.572519,-2.175573,-0.065186,-0.970703,-0.321533,0.00,0.00,0.00
219,-11.328244,2.694656,-1.312977,-0.034912,-0.959229,-0.322510,0.00,0.00,0.00
220,-10.419847,2.213740,-0.618321,-0.083496,-0.976562,-0.346191,0.00,0.00,0.00
221,-9.328244,1.335878,-1.450382,-0.058350,-0.958984,-0.353271,0.00,0.00,0.00
222,-5.549618,3.603053,-3.274809,-0.011963,-0.952148,-0.323975,0.00,0.00,0.00
223,-9.641221,2.969466,0.320611,-0.073242,-0.952637,-0.345947,0.00,0.00,0.00
224,-7.923664,1.748092,-0.549618,-0.095459,-0.949219,-0.320557,0.00,0.00,0.00
225,-7.312977,2.625954,-0.625954,-0.069336,-0.937500,-0.332764,0.00,0.00,0.00
226,-7.000000,3.282443,-0.381679,-0.044922,-0.943115,-0.325439,0.00,0.00,0.00
227,-6.458015,5.160305,-1.267176,-0.025146,-0.940674,-0.316406,0.00,0.00,0.00
228,-6.816794,2.251908,0.809160,-0.007812,-0.958496,-0.311035,0.00,0.00,0.00
229,-5.763359,1.877863,0.770992,-0.099854,-0.993896,-0.321289,0.00,0.00,0.00
230,-5.061069,1.290076,-0.870229,-0.087646,-0.976074,-0.310791,0.00,0.00,0.00
231,-5.496183,-0.106870,-0.694656,-0.082275,-0.955322,-0.318115,0.00,0.00,0.00
232,-5.145038,-1.083969,-1.007634,-0.059814,-0.951416,-0.331299,0.00,0.00,0.00
233,-4.916031,-2.534351,-1.022901,-0.037598,-0.944824,-0.325928,0.00,0.00,0.00
234,-4.305344,-3.541985,-0.633588,-0.025391,-0.958008,-0.320312,0.00,0.00,0.00
235,-3.977099,-4.259542,-0.282443,-0.019531,-0.963867,-0.313965,0.00,0.00,0.00
236,-3.328244,-4.419847,0.442748,-0.011230,-0.967285,-0.306885,0.00,0.00,0.00
237,-3.206107,-4.312977,0.793893,-0.020752,-0.975098,-0.297363,0.00,0.00,0.00
238,-3.007634,-3.503817,1.351145,-0.024658,-0.966553,-0.311279,0.00,0.00,0.00
239,-2.931298,-2.778626,1.473282,-0.032471,-0.959229,-0.309326,0.00,0.00,0.00
240,-2.618321,-2.641221,1.641221,-0.033936,-0.959229,-0.311768,0.00,0.00,0.00
241,-2.732824,-3.091603,2.152672,-0.043945,-0.949219,-0.303223,0.00,0.00,0.00
242,-2.000000,-2.923664,2.282443,-0.045898,-0.950195,-0.309570,0.00,0.00,0.00
243,-1.641221,-3.045802,2.450382,-0.033936,-0.960449,-0.320312,0.00,0.00,0.00
244,-1.152672,-4.198473,2.832061,-0.038574,-0.970459,-0.323242,0.00,0.00,0.00
245,-0.946565,-4.877863,3.282443,-0.048828,-0.956543,-0.313721,0.00,0.00,0.00
246,-0.580153,-4.961832,3.824427,-0.040039,-0.950928,-0.305420,0.00,0.00,0.00
247,-0.106870,-4.931298,4.099237,-0.016113,-0.951660,-0.316406,0.00,0.00,0.00
248,-0.091603,-5.755725,4.580153,-0.019531,-0.948486,-0.302979,0.00,0.00,0.00
249,-0.259542,-6.129771,5.083969,-0.030029,-0.953125,-0.297119,0.00,0.00,0.00
250,2.847328,-5.793893,5.656489,-0.022461,-0.973633,-0.270752,0.00,0.00,0.00
251,-0.908397,-4.198473,6.236641,-0.049072,-0.978271,-0.292969,0.00,0.00,0.00
252,-0.038168,-4.984733,6.358779,-0.024902,-0.959473,-0.290283,0.00,0.00,0.00
253,-0.633588,-5.473282,7.022901,-0.045654,-0.957031,-0.286621,0.00,0.00,0.00
254,-0.450382,-4.931298,6.992366,-0.058594,-0.955566,-0.274902,0.00,0.00,0.00
255,-0.709924,-4.931298,6.625954,-0.058350,-0.944092,-0.282471,0.00,0.00,0.00
256,-1.145038,-5.648855,6.793893,-0.068359,-0.940918,-0.301270,0.00,0.00,0.00
257,-1.251908,-5.503817,6.458015,-0.079834,-0.941162,-0.296875,0.00,0.00,0.00
258,-1.274809,-5.931298,6.259542,-0.069336,-0.950684,-0.285645,0.00,0.00,0.00
259,-1.045802,-6.763359,6.022901,-0.084229,-0.951416,-0.286865,0.00,0.00,0.00
260,-0.885496,-6.824427,5.793893,-0.074463,-0.955811,-0.299561,0.00,0.00,0.00
261,-1.000000,-7.030534,5.374046,-0.078857,-0.949219,-0.308594,0.00,0.00,0.00
262,-0.885496,-7.335878,5.473282,-0.073975,-0.947998,-0.303223,0.00,0.00,0.00
263,-0.763359,-7.374046,5.114504,-0.061035,-0.948242,-0.319580,0.00,0.00,0.00
264,-0.671756,-7.893130,5.061069,-0.060059,-0.949219,-0.297363,0.00,0.00,0.00
265,-0.358779,-7.625954,5.129771,-0.063477,-0.959717,-0.306152,0.00,0.00,0.00
266,0.106870,-6.992366,5.045802,-0.058350,-0.960449,-0.302490,0.00,0.00,0.00
267,-0.198473,-7.473282,4.969466,-0.065674,-0.957275,-0.289795,0.00,0.00,0.00
268,-0.358779,-7.519084,5.000000,-0.070312,-0.955078,-0.282227,0.00,0.00,0.00
269,-0.503817,-7.427481,4.702290,-0.074463,-0.949951,-0.277588,0.00,0.00,0.00
270,-0.572519,-7.877863,4.450382,-0.061523,-0.938965,-0.299072,0.00,0.00,0.00
271,-0.572519,-8.412214,4.580153,-0.070801,-0.942383,-0.288574,0.00,0.00,0.00
272,-0.664122,-9.068702,4.519084,-0.077393,-0.947021,-0.292480,0.00,0.00,0.00
273,-0.519084,-9.526718,4.221374,-0.087891,-0.952148,-0.294922,0.00,0.00,0.00
274,-0.427481,-9.854962,3.740458,-0.089600,-0.946289,-0.303467,0.00,0.00,0.00
275,-0.053435,-10.564885,3.480916,-0.096924,-0.949707,-0.305908,0.00,0.00,0.00
276,-0.007634,-11.725191,3.160305,-0.090820,-0.945801,-0.308105,0.00,0.00,0.00
277,0.526718,-11.717557,2.702290,-0.098633,-0.950928,-0.327393,0.00,0.00,0.00
278,1.152672,-10.175573,2.290076,-0.104736,-0.937500,-0.338867,0.00,0.00,0.00
279,1.557252,-9.625954,2.358779,-0.094727,-0.942871,-0.340820,0.00,0.00,0.00
280,2.114504,-10.374046,2.343511,-0.063477,-0.937988,-0.339600,0.00,0.00,0.00
281,2.809160,-10.374046,2.671756,-0.049561,-0.951172,-0.335449,0.00,0.00,0.00
282,3.961832,-10.030534,3.419847,-0.038818,-0.953613,-0.327148,0.00,0.00,0.00
283,4.580153,-9.267176,3.984733,-0.052246,-0.957031,-0.331543,0.00,0.00,0.00
284,4.908397,-8.687023,4.412214,-0.065674,-0.953125,-0.336182,0.00,0.00,0.00
285,5.534351,-8.114504,4.816794,-0.066650,-0.957031,-0.309570,0.00,0.00,0.00
286,5.541985,-8.190840,4.694656,-0.074951,-0.954834,-0.307129,0.00,0.00,0.00
287,5.557252,-9.519084,5.000000,-0.087646,-0.951416,-0.306885,0.00,0.00,0.00
288,5.992366,-10.236641,4.389313,-0.111084,-0.943848,-0.305176,0.00,0.00,0.00
289,6.213740,-10.862595,3.694656,-0.116455,-0.941895,-0.302002,0.00,0.00,0.00
290,6.145038,-13.183206,3.335878,-0.120605,-0.940674,-0.298096,0.00,0.00,0.00
291,6.595420,-14.832061,3.038168,-0.121826,-0.945557,-0.306152,0.00,0.00,0.00
292,7.267176,-15.763359,2.572519,-0.117432,-0.942627,-0.320068,0.00,0.00,0.00
293,7.450382,-16.335878,2.106870,-0.103271,-0.936768,-0.335693,0.00,0.00,0.00
294,8.137405,-16.106870,1.625954,-0.098389,-0.943115,-0.335693,0.00,0.00,0.00
295,8.687023,-16.068702,1.809160,-0.080811,-0.942383,-0.319092,0.00,0.00,0.00
296,9.167939,-16.778626,2.061069,-0.072998,-0.954590,-0.320068,0.00,0.00,0.00
297,9.923664,-17.412214,2.053435,-0.086426,-0.946045,-0.341309,0.00,0.00,0.00
298,9.587786,-16.870229,2.916031,-0.095215,-0.945801,-0.323242,0.00,0.00,0.00
299,10.625954,-15.679389,2.450382,-0.092773,-0.959717,-0.324707,0.00,0.00,0.00
300,10.679389,-15.167939,2.671756,-0.070557,-0.952148,-0.297852,0.00,0.00,0.00
301,10.793893,-16.045802,3.053435,-0.065918,-0.963623,-0.301025,0.00,0.00,0.00
302,10.335878,-21.129771,7.625954,-0.105713,-1.024658,-0.304688,0.00,0.00,0.00
303,11.610687,-19.305344,3.328244,-0.078369,-0.954346,-0.262451,0.00,0.00,0.00
304,10.198473,-19.236641,3.862595,-0.049805,-0.957520,-0.274902,0.00,0.00,0.00
305,10.511450,-20.282443,4.755725,-0.063477,-0.956787,-0.297119,0.00,0.00,0.00
306,11.076336,-20.198473,4.702290,-0.071533,-0.951660,-0.267334,0.00,0.00,0.00
307,11.267176,-21.053435,5.259542,-0.080811,-0.953369,-0.286865,0.00,0.00,0.00
308,11.358779,-21.557252,5.473282,-0.089844,-0.956543,-0.280029,0.00,0.00,0.00
309,12.007634,-21.442748,5.595420,-0.096191,-0.965088,-0.286377,0.00,0.00,0.00
310,12.099237,-21.106870,5.511450,-0.084961,-0.957520,-0.285400,0.00,0.00,0.00
311,12.656489,-20.595420,5.656489,-0.093994,-0.962402,-0.278809,0.00,0.00,0.00
312,12.977099,-20.343511,5.335878,-0.098389,-0.958740,-0.282959,0.00,0.00,0.00
313,13.404580,-20.633588,5.450382,-0.111572,-0.951660,-0.276367,0.00,0.00,0.00
314,13.442748,-20.748092,4.809160,-0.135498,-0.937500,-0.287109,0.00,0.00,0.00
315,13.580153,-20.702290,4.519084,-0.134766,-0.933838,-0.281494,0.00,0.00,0.00
316,13.587786,-20.633588,3.885496,-0.132568,-0.937500,-0.275879,0.00,0.00,0.00
317,14.435115,-21.236641,3.229008,-0.129150,-0.945068,-0.277832,0.00,0.00,0.00
318,14.641221,-21.862595,3.007634,-0.139160,-0.946289,-0.277832,0.00,0.00,0.00
319,14.412214,-22.900763,1.977099,-0.145996,-0.955078,-0.269287,0.00,0.00,0.00
320,14.290076,-24.473282,1.022901,-0.141357,-0.953857,-0.267090,0.00,0.00,0.00
321,14.244275,-26.725191,0.694656,-0.132812,-0.949707,-0.282471,0.00,0.00,0.00
322,14.244275,-29.015267,0.488550,-0.125488,-0.947021,-0.293701,0.00,0.00,0.00
323,15.015267,-30.641221,0.625954,-0.122314,-0.950195,-0.302490,0.00,0.00,0.00
324,15.564885,-31.725191,0.419847,-0.123047,-0.943115,-0.284912,0.00,0.00,0.00
325,15.847328,-32.763359,0.496183,-0.118164,-0.945068,-0.287109,0.00,0.00,0.00
326,15.946565,-33.496183,0.282443,-0.118164,-0.944580,-0.262451,0.00,0.00,0.00
327,16.801527,-32.969466,0.114504,-0.109863,-0.956055,-0.261963,0.00,0.00,0.00
328,16.679389,-32.221374,-0.190840,-0.097656,-0.963623,-0.251221,0.00,0.00,0.00
329,16.793893,-32.213740,0.015267,-0.080322,-0.974609,-0.235840,0.00,0.00,0.00
330,17.122137,-32.022901,0.442748,-0.081299,-0.969238,-0.235352,0.00,0.00,0.00
331,17.114504,-31.236641,0.862595,-0.078613,-0.958984,-0.231445,0.00,0.00,0.00
332,17.427481,-29.694656,0.961832,-0.083008,-0.959717,-0.237549,0.00,0.00,0.00
333,18.030534,-28.893130,1.160305,-0.100830,-0.971191,-0.227295,0.00,0.00,0.00
334,18.122137,-29.633588,0.824427,-0.114746,-0.966797,-0.235352,0.00,0.00,0.00
335,18.496183,-30.244275,0.702290,-0.129883,-0.965088,-0.227539,0.00,0.00,0.00
336,18.167939,-31.106870,0.496183,-0.138916,-0.957275,-0.237549,0.00,0.00,0.00
337,18.580153,-31.969466,0.137405,-0.135742,-0.960938,-0.242432,0.00,0.00,0.00
338,18.770992,-32.603053,0.061069,-0.125488,-0.951904,-0.232422,0.00,0.00,0.00
339,18.717557,-33.022901,0.267176,-0.108154,-0.955078,-0.239258,0.00,0.00,0.00
340,19.061069,-32.732824,0.427481,-0.098877,-0.968262,-0.226074,0.00,0.00,0.00
341,19.488550,-32.198473,1.320611,-0.085449,-0.969482,-0.234131,0.00,0.00,0.00
342,19.572519,-31.366412,1.526718,-0.081787,-0.969482,-0.232910,0.00,0.00,0.00
343,19.587786,-31.618321,1.778626,-0.108398,-0.969727,-0.245605,0.00,0.00,0.00
344,19.687023,-31.786260,1.893130,-0.131348,-0.961670,-0.242432,0.00,0.00,0.00
345,19.770992,-31.282443,2.129771,-0.132568,-0.953125,-0.231934,0.00,0.00,0.00
346,19.801527,-30.862595,2.221374,-0.118896,-0.956299,-0.236328,0.00,0.00,0.00
347,20.519084,-30.610687,2.236641,-0.111084,-0.967529,-0.224854,0.00,0.00,0.00
348,20.893130,-30.106870,2.061069,-0.110840,-0.966797,-0.218506,0.00,0.00,0.00
349,21.137405,-28.992366,2.129771,-0.112305,-0.959473,-0.217529,0.00,0.00,0.00
350,21.251908,-28.786260,2.022901,-0.121826,-0.966553,-0.213379,0.00,0.00,0.00
351,21.320611,-28.137405,2.198473,-0.131104,-0.955078,-0.205322,0.00,0.00,0.00
352,21.526718,-27.206107,2.267176,-0.126953,-0.953369,-0.207031,0.00,0.00,0.00
353,21.595420,-26.198473,2.068702,-0.123535,-0.956543,-0.197754,0.00,0.00,0.00
354,21.709924,-25.473282,2.297710,-0.108643,-0.964355,-0.197754,0.00,0.00,0.00
355,22.404580,-24.259542,2.473282,-0.088623,-0.978760,-0.182861,0.00,0.00,0.00
356,22.419847,-23.053435,2.763359,-0.091797,-0.967041,-0.192383,0.00,0.00,0.00
357,22.748092,-21.946565,3.160305,-0.099365,-0.967529,-0.187744,0.00,0.00,0.00
358,22.893130,-20.786260,3.396947,-0.100586,-0.971191,-0.180908,0.00,0.00,0.00
359,23.618321,-20.274809,3.549618,-0.102783,-0.976562,-0.183838,0.00,0.00,0.00
360,23.557252,-19.725191,3.748092,-0.106201,-0.978027,-0.186768,0.00,0.00,0.00
361,23.969466,-19.251908,4.122137,-0.116943,-0.976074,-0.186279,0.00,0.00,0.00
362,24.534351,-18.625954,4.381679,-0.113770,-0.963379,-0.187256,0.00,0.00,0.00
363,24.854962,-17.274809,4.496183,-0.116943,-0.963135,-0.187256,0.00,0.00,0.00
364,25.000000,-15.923664,4.496183,-0.113525,-0.959961,-0.189209,0.00,0.00,0.00
365,25.473282,-14.763359,4.877863,-0.125000,-0.960449,-0.184326,0.00,0.00,0.00
366,25.412214,-13.534351,5.083969,-0.122070,-0.957275,-0.175293,0.00,0.00,0.00
367,25.610687,-12.213740,5.183206,-0.117188,-0.951172,-0.177246,0.00,0.00,0.00
368,25.763359,-10.641221,5.274809,-0.114502,-0.956299,-0.170166,0.00,0.00,0.00
369,25.656489,-9.206107,5.832061,-0.115234,-0.959717,-0.161377,0.00,0.00,0.00
370,25.770992,-6.984733,5.786260,-0.115967,-0.969482,-0.155518,0.00,0.00,0.00
371,25.824427,-4.946565,5.793893,-0.115967,-0.971924,-0.153320,0.00,0.00,0.00
372,25.694656,-3.435115,5.885496,-0.111816,-0.979492,-0.133301,0.00,0.00,0.00
373,25.450382,-2.374046,5.893130,-0.107910,-0.972412,-0.139404,0.00,0.00,0.00
374,25.229008,-1.557252,6.083969,-0.105469,-0.977539,-0.147705,0.00,0.00,0.00
375,25.137405,-0.442748,6.480916,-0.119141,-0.968506,-0.144287,0.00,0.00,0.00
376,24.954198,0.885496,6.984733,-0.114746,-0.956299,-0.138428,0.00,0.00,0.00
377,24.473282,2.793893,7.290076,-0.114014,-0.962646,-0.132568,0.00,0.00,0.00
378,23.793893,3.671756,8.229008,-0.106934,-0.963867,-0.117432,0.00,0.00,0.00
379,23.419847,4.664122,8.908397,-0.105469,-0.963379,-0.102539,0.00,0.00,0.00
380,22.946565,5.938931,9.946565,-0.092285,-0.958740,-0.095215,0.00,0.00,0.00
381,22.816794,7.641221,10.755725,-0.083740,-0.964111,-0.089844,0.00,0.00,0.00
382,22.557252,9.175573,11.328244,-0.068115,-0.970459,-0.082520,0.00,0.00,0.00
383,22.458015,10.969466,12.129771,-0.070801,-0.974609,-0.084473,0.00,0.00,0.00
384,22.541985,12.671756,12.702290,-0.081543,-0.978760,-0.083496,0.00,0.00,0.00
385,22.450382,13.954198,13.061069,-0.082520,-0.980225,-0.091064,0.00,0.00,0.00
386,22.083969,15.129771,13.473282,-0.096191,-0.981445,-0.099854,0.00,0.00,0.00
387,21.687023,16.450382,13.664122,-0.110107,-0.988281,-0.102539,0.00,0.00,0.00
388,21.038168,17.656489,13.908397,-0.124512,-0.984131,-0.105957,0.00,0.00,0.00
389,21.274809,18.564885,14.137405,-0.134766,-0.989502,-0.119141,0.00,0.00,0.00
390,20.786260,19.236641,14.274809,-0.153320,-0.980225,-0.118652,0.00,0.00,0.00
391,20.389313,20.129771,14.236641,-0.160400,-0.982910,-0.126709,0.00,0.00,0.00
392,20.381679,22.244275,13.641221,-0.177490,-0.974854,-0.108154,0.00,0.00,0.00
393,20.221374,22.709924,13.045802,-0.180908,-0.958008,-0.107422,0.00,0.00,0.00
394,19.923664,22.480916,11.877863,-0.194336,-0.961426,-0.112305,0.00,0.00,0.00
395,19.595420,21.793893,10.900763,-0.230713,-0.946289,-0.107666,0.00,0.00,0.00
396,18.832061,20.473282,9.832061,-0.261719,-0.950195,-0.097900,0.00,0.00,0.00
397,17.740458,18.633588,8.977099,-0.252686,-0.945801,-0.095215,0.00,0.00,0.00
398,17.282443,15.610687,8.221374,-0.225098,-0.963379,-0.112549,0.00,0.00,0.00
399,16.015267,12.961832,7.977099,-0.198730,-0.964355,-0.120117,0.00,0.00,0.00
400,15.480916,12.625954,7.877863,-0.170898,-0.972412,-0.114746,0.00,0.00,0.00
401,15.664122,12.954198,7.809160,-0.147705,-0.982910,-0.121338,0.00,0.00,0.00
402,15.541985,13.557252,8.106870,-0.123047,-0.983154,-0.105225,0.00,0.00,0.00
403,15.503817,14.625954,8.396947,-0.109863,-0.979492,-0.095703,0.00,0.00,0.00
404,15.282443,15.351145,8.480916,-0.101318,-0.982666,-0.081543,0.00,0.00,0.00
405,15.343511,16.122137,8.541985,-0.099854,-0.978516,-0.092285,0.00,0.00,0.00
406,15.030534,16.221374,8.793893,-0.105469,-0.976318,-0.088867,0.00,0.00,0.00
407,14.595420,16.015267,9.290076,-0.115479,-0.982422,-0.094727,0.00,0.00,0.00
408,14.564885,15.618321,9.725191,-0.146729,-0.979980,-0.092773,0.00,0.00,0.00
409,14.122137,15.274809,10.244275,-0.166016,-0.973145,-0.092773,0.00,0.00,0.00
410,13.450382,14.183206,10.061069,-0.171631,-0.966553,-0.080322,0.00,0.00,0.00
411,12.854962,11.992366,10.206107,-0.168945,-0.963623,-0.089111,0.00,0.00,0.00
412,12.282443,9.366412,10.190840,-0.164062,-0.972900,-0.089844,0.00,0.00,0.00
413,11.786260,7.687023,10.396947,-0.159912,-0.976562,-0.085205,0.00,0.00,0.00
414,11.862595,5.816794,10.702290,-0.158691,-0.965088,-0.081299,0.00,0.00,0.00
415,11.305344,3.633588,10.702290,-0.156006,-0.962158,-0.052734,0.00,0.00,0.00
416,10.679389,1.396947,10.946565,-0.166992,-0.949463,-0.052246,0.00,0.00,0.00
417,10.083969,-0.503817,11.091603,-0.184814,-0.957520,-0.055908,0.00,0.00,0.00
418,9.778626,-2.030534,11.366412,-0.197021,-0.950195,-0.053223,0.00,0.00,0.00
419,9.167939,-4.931298,12.015267,-0.211914,-0.943848,-0.067139,0.00,0.00,0.00
420,8.549618,-8.389313,12.236641,-0.227295,-0.936768,-0.071045,0.00,0.00,0.00
421,7.633588,-11.648855,12.183206,-0.240479,-0.936523,-0.085938,0.00,0.00,0.00
422,6.122137,-14.458015,12.274809,-0.254395,-0.934326,-0.100830,0.00,0.00,0.00
423,4.549618,-16.122137,11.893130,-0.252930,-0.945801,-0.111816,0.00,0.00,0.00
424,4.137405,-18.053435,12.167939,-0.248291,-0.942139,-0.123535,0.00,0.00,0.00
425,3.641221,-20.198473,12.297710,-0.242676,-0.952393,-0.110596,0.00,0.00,0.00
426,3.496183,-21.740458,12.702290,-0.235107,-0.949219,-0.110107,0.00,0.00,0.00
427,3.526718,-21.778626,12.809160,-0.228027,-0.947510,-0.093506,0.00,0.00,0.00
428,4.213740,-21.824427,13.167939,-0.208008,-0.954102,-0.088379,0.00,0.00,0.00
429,4.618321,-21.122137,13.175573,-0.193359,-0.943115,-0.065918,0.00,0.00,0.00
430,5.702290,-19.335878,13.030534,-0.179688,-0.944824,-0.060547,0.00,0.00,0.00
431,6.625954,-17.145038,12.862595,-0.171875,-0.951172,-0.044922,0.00,0.00,0.00
432,7.732824,-14.717557,12.595420,-0.165527,-0.948975,-0.034912,0.00,0.00,0.00
433,8.816794,-12.496183,12.198473,-0.172119,-0.944824,-0.033203,0.00,0.00,0.00
434,9.465649,-9.625954,11.900763,-0.173096,-0.941650,-0.034912,0.00,0.00,0.00
435,10.396947,-6.587786,11.839695,-0.170166,-0.944580,-0.029541,0.00,0.00,0.00
436,11.091603,-3.267176,11.893130,-0.160645,-0.947754,-0.027100,0.00,0.00,0.00
437,11.748092,0.748092,12.282443,-0.163818,-0.947021,-0.024414,0.00,0.00,0.00
438,12.412214,4.961832,12.297710,-0.158203,-0.945557,0.005615,0.00,0.00,0.00
439,13.175573,9.625954,12.412214,-0.139404,-0.945312,0.022949,0.00,0.00,0.00
440,13.717557,14.908397,12.381679,-0.117920,-0.961426,0.037354,0.00,0.00,0.00
441,14.267176,19.389313,12.381679,-0.100830,-0.973145,0.053711,0.00,0.00,0.00
442,14.106870,21.954198,12.503817,-0.114746,-0.974121,0.048584,0.00,0.00,0.00
443,13.458015,22.938931,12.618321,-0.141602,-0.975342,0.036377,0.00,0.00,0.00
444,12.396947,23.137405,12.786260,-0.170166,-0.965088,0.018066,0.00,0.00,0.00
445,11.450382,23.282443,12.832061,-0.218262,-0.964111,-0.004150,0.00,0.00,0.00
446,9.877863,21.931298,13.381679,-0.265137,-0.937500,-0.015869,0.00,0.00,0.00
447,8.641221,20.091603,13.618321,-0.276123,-0.936768,-0.028564,0.00,0.00,0.00
448,7.503817,17.045802,14.083969,-0.278076,-0.931641,-0.032715,0.00,0.00,0.00
449,6.473282,14.717557,13.862595,-0.277100,-0.936035,-0.016602,0.00,0.00,0.00
450,5.885496,12.885496,13.190840,-0.267578,-0.947021,-0.014160,0.00,0.00,0.00
451,5.442748,11.030534,11.755725,-0.260498,-0.953369,-0.009521,0.00,0.00,0.00
452,5.099237,8.916031,10.343511,-0.247803,-0.958984,-0.003906,0.00,0.00,0.00
453,4.259542,6.000000,8.603053,-0.226318,-0.973877,-0.002686,0.00,0.00,0.00
454,3.496183,3.221374,6.916031,-0.226074,-0.981934,-0.010010,0.00,0.00,0.00
455,1.969466,1.977099,5.938931,-0.222412,-0.985352,-0.030762,0.00,0.00,0.00
456,1.251908,1.290076,5.076336,-0.235352,-0.988525,-0.035400,0.00,0.00,0.00
457,0.419847,0.557252,4.251908,-0.237305,-0.989502,-0.046387,0.00,0.00,0.00
458,-0.007634,0.671756,3.984733,-0.244629,-0.981445,-0.044189,0.00,0.00,0.00
459,-0.351145,1.267176,3.610687,-0.224609,-0.972656,-0.042725,0.00,0.00,0.00
460,-0.290076,1.793893,3.297710,-0.221191,-0.967041,-0.059326,0.00,0.00,0.00
461,-0.404580,2.114504,2.923664,-0.209717,-0.968018,-0.070312,0.00,0.00,0.00
462,-0.282443,2.595420,2.671756,-0.214600,-0.967285,-0.064697,0.00,0.00,0.00
463,-0.030534,3.526718,2.328244,-0.217285,-0.968994,-0.077881,0.00,0.00,0.00
464,0.381679,4.595420,2.137405,-0.214355,-0.972900,-0.067383,0.00,0.00,0.00
465,1.015267,5.648855,1.725191,-0.210938,-0.986572,-0.069336,0.00,0.00,0.00
466,1.557252,6.801527,1.221374,-0.205811,-0.986572,-0.073242,0.00,0.00,0.00
467,1.916031,7.305344,0.610687,-0.213623,-0.989502,-0.093994,0.00,0.00,0.00
468,2.587786,6.465649,-0.404580,-0.216064,-0.981689,-0.098877,0.00,0.00,0.00
469,2.763359,5.725191,-0.839695,-0.225586,-0.979004,-0.097900,0.00,0.00,0.00
470,3.297710,4.389313,-1.358779,-0.238770,-0.972900,-0.114258,0.00,0.00,0.00
471,3.358779,2.625954,-1.259542,-0.248291,-0.965332,-0.124023,0.00,0.00,0.00
472,3.465649,0.984733,-1.419847,-0.232422,-0.955566,-0.126709,0.00,0.00,0.00
473,3.236641,-0.908397,-0.748092,-0.240723,-0.950439,-0.133057,0.00,0.00,0.00
474,3.374046,-2.137405,-0.442748,-0.240967,-0.948242,-0.131836,0.00,0.00,0.00
475,3.175573,-3.427481,-0.312977,-0.247803,-0.950439,-0.116699,0.00,0.00,0.00
476,3.114504,-4.656489,-0.229008,-0.246582,-0.943848,-0.110352,0.00,0.00,0.00
477,3.305344,-6.404580,0.145038,-0.235840,-0.954590,-0.104248,0.00,0.00,0.00
478,3.442748,-6.946565,0.076336,-0.238525,-0.954590,-0.087158,0.00,0.00,0.00
479,3.557252,-7.656489,0.076336,-0.219482,-0.961426,-0.078125,0.00,0.00,0.00
480,4.114504,-8.618321,-0.259542,-0.202393,-0.965576,-0.075928,0.00,0.00,0.00
481,4.641221,-9.595420,-0.244275,-0.193604,-0.970459,-0.068115,0.00,0.00,0.00
482,4.633588,-10.648855,-0.091603,-0.189209,-0.986572,-0.070557,0.00,0.00,0.00
483,5.000000,-11.328244,-0.488550,-0.185303,-0.984619,-0.075195,0.00,0.00,0.00
484,5.282443,-11.931298,-0.870229,-0.196777,-0.976318,-0.061523,0.00,0.00,0.00
485,5.480916,-12.862595,-0.992366,-0.202148,-0.969482,-0.062500,0.00,0.00,0.00
486,4.992366,-13.572519,-0.923664,-0.204102,-0.962402,-0.059326,0.00,0.00,0.00
487,5.000000,-13.641221,-0.664122,-0.205078,-0.958252,-0.050293,0.00,0.00,0.00
488,4.992366,-12.778626,0.114504,-0.211914,-0.956055,-0.040283,0.00,0.00,0.00
489,4.732824,-11.984733,0.603053,-0.208008,-0.951904,-0.028564,0.00,0.00,0.00
490,4.664122,-10.671756,0.946565,-0.205078,-0.967285,-0.024414,0.00,0.00,0.00
491,4.396947,-9.824427,1.458015,-0.198730,-0.961914,-0.014893,0.00,0.00,0.00
492,4.015267,-8.877863,1.618321,-0.191406,-0.957764,-0.011719,0.00,0.00,0.00
493,3.603053,-8.549618,1.748092,-0.199951,-0.964600,-0.007812,0.00,0.00,0.00
494,3.038168,-8.335878,1.610687,-0.204834,-0.951416,0.005859,0.00,0.00,0.00
495,2.694656,-7.763359,1.954198,-0.196777,-0.952393,0.004150,0.00,0.00,0.00
496,2.129771,-7.679389,2.114504,-0.199951,-0.953369,0.003174,0.00,0.00,0.00
497,1.725191,-7.625954,2.404580,-0.211914,-0.954834,-0.003662,0.00,0.00,0.00
498,1.244275,-7.114504,2.625954,-0.199707,-0.958496,-0.001953,0.00,0.00,0.00
499,0.854962,-6.946565,2.603053,-0.190186,-0.967041,-0.002930,0.00,0.00,0.00
500,0.404580,-6.954198,2.717557,-0.198975,-0.972168,0.002930,0.00,0.00,0.00
501,0.045802,-6.809160,2.618321,-0.206543,-0.971191,0.000244,0.00,0.00,0.00
502,-0.190840,-7.137405,2.389313,-0.197998,-0.976318,-0.010498,0.00,0.00,0.00
503,-0.450382,-7.763359,2.236641,-0.201904,-0.969482,-0.011963,0.00,0.00,0.00
504,-0.648855,-7.977099,2.122137,-0.209229,-0.965820,-0.013184,0.00,0.00,0.00
505,-0.839695,-8.106870,1.625954,-0.212646,-0.960205,-0.019531,0.00,0.00,0.00
506,-0.854962,-8.702290,1.709924,-0.216797,-0.950439,-0.031006,0.00,0.00,0.00
507,-0.862595,-8.870229,2.175573,-0.237061,-0.951660,-0.030762,0.00,0.00,0.00
508,-0.770992,-10.114504,2.145038,-0.245361,-0.948242,-0.020996,0.00,0.00,0.00
509,-1.045802,-11.595420,2.503817,-0.234619,-0.934570,-0.038574,0.00,0.00,0.00
510,-1.465649,-12.175573,2.793893,-0.227539,-0.932861,-0.048584,0.00,0.00,0.00
511,-1.335878,-11.961832,3.419847,-0.222168,-0.933838,-0.052979,0.00,0.00,0.00
512,-1.145038,-11.648855,4.114504,-0.219238,-0.936035,-0.053467,0.00,0.00,0.00
513,-0.954198,-11.458015,4.900763,-0.205811,-0.953369,-0.047363,0.00,0.00,0.00
514,-0.908397,-10.473282,5.595420,-0.194580,-0.960693,-0.054688,0.00,0.00,0.00
515,-0.480916,-9.381679,6.213740,-0.180176,-0.972900,-0.043457,0.00,0.00,0.00
516,0.053435,-7.709924,6.427481,-0.179443,-0.976807,-0.051758,0.00,0.00,0.00
517,0.572519,-6.580153,6.755725,-0.181396,-0.971924,-0.053467,0.00,0.00,0.00
518,1.152672,-5.328244,6.916031,-0.179199,-0.973145,-0.036377,0.00,0.00,0.00
519,1.603053,-4.122137,7.137405,-0.181641,-0.966797,-0.040283,0.00,0.00,0.00
520,2.190840,-3.396947,7.198473,-0.187500,-0.963867,-0.049072,0.00,0.00,0.00
521,2.244275,-3.007634,7.137405,-0.194336,-0.962158,-0.048340,0.00,0.00,0.00
522,2.656489,-2.633588,7.221374,-0.208252,-0.965576,-0.039795,0.00,0.00,0.00
523,2.580153,-2.328244,7.160305,-0.212891,-0.968262,-0.045898,0.00,0.00,0.00
524,2.572519,-2.145038,7.129771,-0.214355,-0.968994,-0.035156,0.00,0.00,0.00
525,3.099237,-1.572519,7.000000,-0.214111,-0.970215,-0.027344,0.00,0.00,0.00
526,3.374046,-0.740458,7.160305,-0.225098,-0.960938,-0.029297,0.00,0.00,0.00
527,3.580153,-0.229008,7.389313,-0.224609,-0.957275,-0.025635,0.00,0.00,0.00
528,3.458015,-0.190840,7.305344,-0.237793,-0.948730,-0.018066,0.00,0.00,0.00
529,3.427481,-0.641221,7.564885,-0.244629,-0.949951,-0.027344,0.00,0.00,0.00
530,2.992366,-1.435115,7.778626,-0.256104,-0.944580,-0.032471,0.00,0.00,0.00
531,2.732824,-1.648855,7.748092,-0.261475,-0.943359,-0.044678,0.00,0.00,0.00
532,2.709924,-2.022901,7.564885,-0.268066,-0.945801,-0.043701,0.00,0.00,0.00
533,2.274809,-2.648855,7.099237,-0.276611,-0.946289,-0.038086,0.00,0.00,0.00
534,2.183206,-2.977099,6.320611,-0.258789,-0.951660,-0.042725,0.00,0.00,0.00
535,1.809160,-4.572519,6.206107,-0.278076,-0.958496,-0.038818,0.00,0.00,0.00
536,1.557252,-5.534351,5.053435,-0.264648,-0.960449,-0.035156,0.00,0.00,0.00
537,1.419847,-6.083969,4.603053,-0.261475,-0.959473,-0.030029,0.00,0.00,0.00
538,1.480916,-6.877863,3.954198,-0.268799,-0.963135,-0.026367,0.00,0.00,0.00
539,1.580153,-7.114504,3.274809,-0.270020,-0.959717,-0.026123,0.00,0.00,0.00
540,1.473282,-8.083969,2.328244,-0.277100,-0.951416,-0.028564,0.00,0.00,0.00
541,1.213740,-8.328244,1.862595,-0.285889,-0.938232,-0.020752,0.00,0.00,0.00
542,0.916031,-8.839695,1.442748,-0.290771,-0.932373,-0.017090,0.00,0.00,0.00
543,0.709924,-8.877863,1.091603,-0.292969,-0.929443,-0.021240,0.00,0.00,0.00
544,0.473282,-8.824427,0.748092,-0.282471,-0.924316,-0.017334,0.00,0.00,0.00
545,0.152672,-8.862595,0.572519,-0.278564,-0.937500,-0.019531,0.00,0.00,0.00
546,-0.015267,-8.969466,0.396947,-0.275391,-0.934570,-0.033203,0.00,0.00,0.00
547,-0.305344,-9.053435,0.450382,-0.265381,-0.942627,-0.032715,0.00,0.00,0.00
548,-0.381679,-9.099237,-0.427481,-0.268799,-0.949707,-0.032227,0.00,0.00,0.00
549,-0.251908,-10.251908,-0.251908,-0.258545,-0.946289,-0.025391,0.00,0.00,0.00
550,-0.931298,-11.381679,-0.603053,-0.282715,-0.950928,-0.027588,0.00,0.00,0.00
551,-0.801527,-12.541985,-1.068702,-0.274902,-0.948730,-0.037842,0.00,0.00,0.00
552,-0.854962,-13.908397,-1.137405,-0.276123,-0.951416,-0.033691,0.00,0.00,0.00
553,-1.335878,-15.389313,-1.435115,-0.278076,-0.947754,-0.042236,0.00,0.00,0.00
554,-1.404580,-16.702290,-1.824427,-0.282715,-0.953125,-0.045654,0.00,0.00,0.00
555,-1.793893,-19.022901,-2.274809,-0.284424,-0.948975,-0.054932,0.00,0.00,0.00
556,-2.351145,-20.992366,-2.572519,-0.278564,-0.945068,-0.048340,0.00,0.00,0.00
557,-2.404580,-23.053435,-2.977099,-0.293213,-0.952393,-0.045898,0.00,0.00,0.00
558,-2.748092,-25.541985,-3.320611,-0.287354,-0.951904,-0.046143,0.00,0.00,0.00
559,-3.099237,-27.412214,-3.549618,-0.274658,-0.956543,-0.057861,0.00,0.00,0.00
560,-3.366412,-29.587786,-3.877863,-0.267090,-0.957764,-0.054688,0.00,0.00,0.00
561,-3.404580,-31.221374,-4.160305,-0.268799,-0.956543,-0.053467,0.00,0.00,0.00
562,-3.801527,-32.908397,-4.587786,-0.267090,-0.948730,-0.056396,0.00,0.00,0.00
563,-4.259542,-34.442748,-4.786260,-0.262939,-0.949219,-0.034912,0.00,0.00,0.00
564,-4.557252,-36.152672,-4.251908,-0.262939,-0.947754,-0.049316,0.00,0.00,0.00
565,-4.580153,-37.038168,-3.931298,-0.257080,-0.954346,-0.047852,0.00,0.00,0.00
566,-4.725191,-38.007634,-3.603053,-0.242676,-0.956787,-0.048340,0.00,0.00,0.00
567,-4.763359,-38.503817,-3.572519,-0.220215,-0.961670,-0.050537,0.00,0.00,0.00
568,-4.778626,-39.007634,-3.641221,-0.210205,-0.962891,-0.051514,0.00,0.00,0.00
569,-4.633588,-39.190840,-3.587786,-0.215088,-0.963135,-0.041504,0.00,0.00,0.00
570,-4.519084,-39.801527,-3.404580,-0.218506,-0.965332,-0.046143,0.00,0.00,0.00
571,-4.480916,-40.381679,-3.366412,-0.225342,-0.961670,-0.054443,0.00,0.00,0.00
572,-4.496183,-40.282443,-3.427481,-0.237549,-0.956543,-0.044434,0.00,0.00,0.00
573,-4.465649,-41.679389,-3.106870,-0.250000,-0.957764,-0.035156,0.00,0.00,0.00
574,-4.610687,-44.145038,-2.717557,-0.275879,-0.947021,-0.034912,0.00,0.00,0.00
575,-5.083969,-46.000000,-3.137405,-0.282227,-0.939941,-0.043213,0.00,0.00,0.00
576,-5.526718,-48.343511,-3.290076,-0.287109,-0.940430,-0.032471,0.00,0.00,0.00
577,-6.000000,-51.122137,-3.671756,-0.285645,-0.934326,-0.041992,0.00,0.00,0.00
578,-6.274809,-53.526718,-3.702290,-0.286133,-0.936279,-0.045654,0.00,0.00,0.00
579,-6.465649,-55.458015,-3.862595,-0.286621,-0.935547,-0.027344,0.00,0.00,0.00
580,-6.374046,-56.320611,-4.259542,-0.278564,-0.937988,-0.023682,0.00,0.00,0.00
581,-6.549618,-57.488550,-4.404580,-0.257568,-0.940918,-0.030029,0.00,0.00,0.00
582,-6.564885,-57.984733,-4.419847,-0.255127,-0.949463,-0.019531,0.00,0.00,0.00
583,-6.725191,-58.679389,-4.725191,-0.252686,-0.952148,-0.022461,0.00,0.00,0.00
584,-6.664122,-58.633588,-4.671756,-0.240967,-0.958496,-0.018311,0.00,0.00,0.00
585,-6.961832,-58.801527,-4.954198,-0.234131,-0.958496,-0.004150,0.00,0.00,0.00
586,-6.969466,-59.206107,-5.381679,-0.235596,-0.952393,-0.013184,0.00,0.00,0.00
587,-7.290076,-59.404580,-5.694656,-0.235352,-0.959473,-0.005859,0.00,0.00,0.00
588,-7.229008,-58.977099,-5.900763,-0.234619,-0.948730,0.000732,0.00,0.00,0.00
589,-7.351145,-59.099237,-6.091603,-0.250977,-0.955811,-0.007568,0.00,0.00,0.00
590,-7.290076,-59.198473,-6.496183,-0.251953,-0.953369,0.001709,0.00,0.00,0.00
591,-7.648855,-59.167939,-6.618321,-0.249268,-0.945312,0.008301,0.00,0.00,0.00
592,-7.732824,-59.671756,-6.946565,-0.246582,-0.947510,0.021484,0.00,0.00,0.00
593,-8.022901,-59.786260,-7.312977,-0.246094,-0.945312,0.007324,0.00,0.00,0.00
594,-8.091603,-59.549618,-7.404580,-0.237305,-0.947021,0.011230,0.00,0.00,0.00
595,-8.450382,-58.625954,-7.450382,-0.237793,-0.950928,0.015137,0.00,0.00,0.00
596,-8.183206,-57.610687,-7.740458,-0.222168,-0.952881,0.010254,0.00,0.00,0.00
597,-8.351145,-56.419847,-8.167939,-0.208496,-0.954102,0.006348,0.00,0.00,0.00
598,-8.389313,-55.274809,-8.320611,-0.206299,-0.964600,0.017334,0.00,0.00,0.00
599,-8.427481,-53.916031,-8.694656,-0.207764,-0.962158,0.022461,0.00,0.00,0.00
600,-8.351145,-52.954198,-8.832061,-0.198975,-0.970947,0.019043,0.00,0.00,0.00
601,-8.618321,-52.190840,-9.007634,-0.200928,-0.975098,0.012695,0.00,0.00,0.00
602,-8.534351,-51.358779,-9.038168,-0.195557,-0.970703,0.011230,0.00,0.00,0.00
603,-8.534351,-50.381679,-9.221374,-0.202637,-0.966553,0.002686,0.00,0.00,0.00
604,-8.419847,-49.679389,-9.473282,-0.204102,-0.962646,0.008789,0.00,0.00,0.00
605,-8.358779,-49.412214,-9.801527,-0.204834,-0.963867,0.000488,0.00,0.00,0.00
606,-8.221374,-49.923664,-10.061069,-0.215088,-0.967041,-0.001465,0.00,0.00,0.00
607,-8.229008,-50.389313,-10.351145,-0.214111,-0.970703,0.000977,0.00,0.00,0.00
608,-8.198473,-50.526718,-10.335878,-0.219482,-0.960693,-0.003662,0.00,0.00,0.00
609,-8.404580,-50.656489,-10.740458,-0.208740,-0.954590,0.006104,0.00,0.00,0.00
610,-8.480916,-50.862595,-10.748092,-0.203613,-0.962402,-0.001465,0.00,0.00,0.00
611,-8.282443,-50.366412,-10.900763,-0.196289,-0.957275,-0.005371,0.00,0.00,0.00
612,-8.503817,-50.564885,-10.961832,-0.192139,-0.963867,-0.001221,0.00,0.00,0.00
613,-8.511450,-50.343511,-10.854962,-0.189453,-0.966553,-0.004639,0.00,0.00,0.00
614,-8.419847,-50.366412,-10.786260,-0.199707,-0.966797,-0.003662,0.00,0.00,0.00
615,-8.435115,-50.526718,-10.847328,-0.206299,-0.968262,-0.015625,0.00,0.00,0.00
616,-8.335878,-50.381679,-10.961832,-0.213623,-0.965088,0.000244,0.00,0.00,0.00
617,-8.549618,-50.274809,-10.549618,-0.216309,-0.959229,0.008301,0.00,0.00,0.00
618,-8.755725,-50.038168,-10.419847,-0.218018,-0.953125,0.011719,0.00,0.00,0.00
619,-8.824427,-50.908397,-10.496183,-0.228027,-0.949951,-0.004150,0.00,0.00,0.00
620,-8.877863,-52.030534,-10.488550,-0.230957,-0.951172,0.009766,0.00,0.00,0.00
621,-9.167939,-53.152672,-10.641221,-0.229980,-0.947510,0.000732,0.00,0.00,0.00
622,-9.557252,-54.045802,-10.732824,-0.227295,-0.947266,0.003906,0.00,0.00,0.00
623,-9.778626,-55.190840,-11.091603,-0.216309,-0.950684,0.002930,0.00,0.00,0.00
624,-10.190840,-57.297710,-11.312977,-0.215820,-0.959717,-0.007568,0.00,0.00,0.00
625,-10.389313,-59.175573,-11.603053,-0.218750,-0.959717,-0.012939,0.00,0.00,0.00
626,-10.603053,-60.801527,-11.816794,-0.212646,-0.966064,-0.024170,0.00,0.00,0.00
627,-11.030534,-62.450382,-12.091603,-0.214844,-0.976074,-0.011475,0.00,0.00,0.00
628,-11.129771,-64.076336,-12.564885,-0.208008,-0.982666,-0.004639,0.00,0.00,0.00
629,-11.129771,-65.007634,-12.748092,-0.205078,-0.972168,-0.005615,0.00,0.00,0.00
630,-11.389313,-66.015267,-12.961832,-0.206543,-0.976318,0.002197,0.00,0.00,0.00
631,-11.755725,-67.038168,-12.755725,-0.208740,-0.970215,-0.010010,0.00,0.00,0.00
632,-11.961832,-67.786260,-12.992366,-0.200684,-0.965332,0.004883,0.00,0.00,0.00
633,-12.145038,-68.770992,-12.893130,-0.209961,-0.960449,-0.008789,0.00,0.00,0.00
634,-12.473282,-69.511450,-13.259542,-0.205078,-0.956543,-0.011963,0.00,0.00,0.00
635,-12.725191,-70.450382,-13.206107,-0.204346,-0.957275,-0.011963,0.00,0.00,0.00
636,-12.709924,-71.671756,-13.305344,-0.193848,-0.957275,-0.011963,0.00,0.00,0.00
637,-13.221374,-73.259542,-13.267176,-0.193848,-0.956787,-0.017090,0.00,0.00,0.00
638,-13.351145,-74.770992,-13.282443,-0.199463,-0.960449,-0.023438,0.00,0.00,0.00
639,-13.526718,-75.587786,-13.381679,-0.184326,-0.967529,-0.022217,0.00,0.00,0.00
640,-13.702290,-76.320611,-13.587786,-0.184570,-0.971924,-0.016602,0.00,0.00,0.00
641,-13.969466,-77.312977,-13.862595,-0.181885,-0.974854,-0.013672,0.00,0.00,0.00
642,-14.000000,-78.129771,-13.778626,-0.170410,-0.970215,-0.013184,0.00,0.00,0.00
643,-14.290076,-78.740458,-13.908397,-0.176270,-0.976562,-0.017334,0.00,0.00,0.00
644,-14.274809,-79.465649,-13.984733,-0.172363,-0.979980,-0.013672,0.00,0.00,0.00
645,-14.610687,-79.900763,-14.297710,-0.184326,-0.980957,-0.006836,0.00,0.00,0.00
646,-14.793893,-79.992366,-14.229008,-0.176270,-0.974854,-0.009033,0.00,0.00,0.00
647,-14.847328,-80.480916,-14.511450,-0.177246,-0.978760,-0.014404,0.00,0.00,0.00
648,-15.083969,-80.717557,-14.312977,-0.177246,-0.973389,-0.013184,0.00,0.00,0.00
649,-15.061069,-80.870229,-14.351145,-0.179932,-0.974121,-0.027832,0.00,0.00,0.00
650,-15.068702,-81.396947,-14.389313,-0.166748,-0.972412,-0.024414,0.00,0.00,0.00
651,-15.366412,-81.816794,-14.274809,-0.177979,-0.968750,-0.019775,0.00,0.00,0.00
652,-15.541985,-81.885496,-14.496183,-0.180908,-0.973145,-0.022217,0.00,0.00,0.00
653,-15.725191,-82.496183,-14.610687,-0.187744,-0.963623,-0.016357,0.00,0.00,0.00
654,-15.793893,-83.832061,-14.977099,-0.169678,-0.976807,-0.031738,0.00,0.00,0.00
655,-15.908397,-84.862595,-15.809160,-0.164307,-0.979492,-0.044922,0.00,0.00,0.00
656,-15.633588,-85.511450,-16.427481,-0.171387,-0.981201,-0.047852,0.00,0.00,0.00
657,-16.030534,-86.916031,-16.938931,-0.166260,-0.982178,-0.041992,0.00,0.00,0.00
658,-16.473282,-88.167939,-17.603053,-0.178467,-0.976562,-0.043945,0.00,0.00,0.00
659,-16.839695,-89.625954,-17.702290,-0.180908,-0.970947,-0.041016,0.00,0.00,0.00
660,-17.099237,-90.167939,-17.526718,-0.192139,-0.973145,-0.027588,0.00,0.00,0.00
661,-17.167939,-90.366412,-17.259542,-0.196777,-0.974365,-0.019287,0.00,0.00,0.00
662,-17.251908,-90.374046,-16.885496,-0.193848,-0.964111,-0.010742,0.00,0.00,0.00
663,-17.580153,-90.473282,-16.419847,-0.174805,-0.959717,-0.008545,0.00,0.00,0.00
664,-17.625954,-90.366412,-16.167939,-0.163086,-0.955322,0.001709,0.00,0.00,0.00
665,-17.854962,-89.862595,-15.786260,-0.148682,-0.953369,0.000977,0.00,0.00,0.00
666,-17.801527,-89.206107,-15.038168,-0.134766,-0.953369,0.008057,0.00,0.00,0.00
667,-17.938931,-88.106870,-14.633588,-0.123047,-0.956055,0.010742,0.00,0.00,0.00
668,-17.679389,-86.847328,-14.206107,-0.110840,-0.955811,0.021240,0.00,0.00,0.00
669,-17.862595,-85.763359,-13.770992,-0.099365,-0.960205,0.017578,0.00,0.00,0.00
670,-17.473282,-85.167939,-13.290076,-0.088379,-0.968506,0.008301,0.00,0.00,0.00
671,-17.175573,-84.061069,-12.908397,-0.095703,-0.968750,0.024902,0.00,0.00,0.00
672,-16.946565,-83.381679,-12.679389,-0.081299,-0.969482,0.029053,0.00,0.00,0.00
673,-16.442748,-82.923664,-12.114504,-0.089600,-0.970215,0.035156,0.00,0.00,0.00
674,-16.206107,-82.664122,-11.946565,-0.085693,-0.971191,0.034668,0.00,0.00,0.00
675,-15.877863,-82.809160,-11.305344,-0.086914,-0.966553,0.044189,0.00,0.00,0.00
676,-15.167939,-82.595420,-10.801527,-0.090332,-0.966309,0.047852,0.00,0.00,0.00
677,-14.793893,-82.580153,-10.183206,-0.089600,-0.966309,0.043213,0.00,0.00,0.00
678,-14.419847,-82.198473,-9.603053,-0.085693,-0.959717,0.048340,0.00,0.00,0.00
679,-14.061069,-81.633588,-8.755725,-0.075684,-0.966797,0.037842,0.00,0.00,0.00
680,-13.664122,-79.847328,-7.938931,-0.059326,-0.976318,0.038818,0.00,0.00,0.00
681,-13.122137,-77.412214,-7.083969,-0.058350,-0.980957,0.034180,0.00,0.00,0.00
682,-12.328244,-75.633588,-6.595420,-0.048584,-0.982422,0.019287,0.00,0.00,0.00
683,-12.190840,-74.106870,-6.076336,-0.045410,-0.980225,0.009033,0.00,0.00,0.00
684,-11.900763,-72.137405,-5.206107,-0.036133,-0.980469,0.005371,0.00,0.00,0.00
685,-11.442748,-69.732824,-4.671756,-0.032959,-0.988281,0.000977,0.00,0.00,0.00
686,-10.801527,-66.473282,-3.870229,-0.032715,-0.999268,0.012451,0.00,0.00,0.00
687,-10.030534,-62.847328,-3.274809,-0.024170,-1.001709,0.019287,0.00,0.00,0.00
688,-9.053435,-58.778626,-2.328244,-0.031738,-1.010010,0.021240,0.00,0.00,0.00
689,-8.122137,-54.862595,-1.068702,-0.035156,-1.006348,0.032471,0.00,0.00,0.00
690,-7.412214,-50.427481,0.427481,-0.047119,-0.990967,0.030518,0.00,0.00,0.00
691,-6.366412,-45.893130,2.259542,-0.048584,-0.984131,0.037109,0.00,0.00,0.00
692,-5.694656,-40.748092,4.076336,-0.047119,-0.975830,0.037842,0.00,0.00,0.00
693,-5.152672,-35.335878,6.068702,-0.032959,-0.964844,0.035156,0.00,0.00,0.00
694,-4.908397,-29.748092,7.442748,-0.024658,-0.953613,0.028320,0.00,0.00,0.00
695,-4.572519,-23.557252,8.305344,0.007812,-0.957764,0.066406,0.00,0.00,0.00
696,-3.824427,-18.175573,8.160305,0.058350,-0.968750,0.057373,0.00,0.00,0.00
697,-4.061069,-15.351145,6.717557,0.125244,-0.986328,0.070312,0.00,0.00,0.00
698,-4.648855,-12.809160,4.755725,0.162354,-1.015137,0.051270,0.00,0.00,0.00
699,-5.236641,-12.061069,3.068702,0.143799,-1.035645,0.026123,0.00,0.00,0.00
700,-5.412214,-10.679389,1.847328,0.077393,-1.057129,0.008301,0.00,0.00,0.00
701,-5.297710,-7.977099,2.587786,-0.016602,-1.068604,0.018555,0.00,0.00,0.00
702,-4.832061,-5.770992,3.335878,-0.102295,-1.061279,0.049805,0.00,0.00,0.00
703,-4.992366,-4.992366,4.519084,-0.142334,-1.038086,0.080566,0.00,0.00,0.00
704,-5.801527,-5.648855,5.679389,-0.133301,-0.995605,0.094238,0.00,0.00,0.00
705,-7.541985,-7.145038,6.458015,-0.108154,-0.964600,0.073730,0.00,0.00,0.00
706,-9.503817,-9.022901,6.633588,-0.056152,-0.949707,0.030029,0.00,0.00,0.00
707,-10.519084,-9.587786,6.854962,-0.049072,-0.960693,0.020752,0.00,0.00,0.00
708,-10.503817,-9.290076,6.870229,-0.045898,-0.978516,0.019531,0.00,0.00,0.00
709,-9.923664,-6.595420,7.137405,-0.051514,-0.997803,0.008057,0.00,0.00,0.00
710,-8.885496,-4.183206,7.396947,-0.070312,-1.009521,0.020020,0.00,0.00,0.00
711,-8.053435,-2.534351,7.572519,-0.081055,-1.002441,0.010742,0.00,0.00,0.00
712,-8.030534,-0.603053,7.793893,-0.103271,-0.989258,0.008789,0.00,0.00,0.00
713,-8.007634,0.465649,8.122137,-0.109863,-0.967529,0.015869,0.00,0.00,0.00
714,-8.122137,1.000000,8.496183,-0.114258,-0.972412,-0.004395,0.00,0.00,0.00
715,-8.061069,0.351145,8.854962,-0.119873,-0.966064,-0.035645,0.00,0.00,0.00
716,-8.412214,-0.580153,8.992366,-0.117920,-0.972656,-0.046143,0.00,0.00,0.00
717,-8.381679,-1.801527,8.992366,-0.128662,-0.979736,-0.066406,0.00,0.00,0.00
718,-8.190840,-3.343511,8.702290,-0.145996,-0.990479,-0.079834,0.00,0.00,0.00
719,-8.396947,-6.038168,8.641221,-0.164307,-0.982178,-0.092529,0.00,0.00,0.00
720,-8.343511,-8.328244,8.259542,-0.173828,-0.989746,-0.072754,0.00,0.00,0.00
721,-8.603053,-10.603053,8.137405,-0.186035,-0.985107,-0.065674,0.00,0.00,0.00
722,-8.732824,-13.465649,8.274809,-0.190674,-0.978027,-0.056641,0.00,0.00,0.00
723,-9.015267,-15.465649,8.038168,-0.190430,-0.977539,-0.032227,0.00,0.00,0.00
724,-9.297710,-16.603053,8.526718,-0.177490,-0.970703,-0.020752,0.00,0.00,0.00
725,-9.450382,-17.923664,8.740458,-0.158936,-0.967041,-0.007812,0.00,0.00,0.00
726,-9.557252,-19.099237,9.038168,-0.157471,-0.967041,-0.012939,0.00,0.00,0.00
727,-9.748092,-19.618321,9.427481,-0.126953,-0.970703,-0.019287,0.00,0.00,0.00
728,-9.977099,-20.335878,9.580153,-0.127197,-0.976074,-0.018555,0.00,0.00,0.00
729,-9.946565,-20.946565,9.587786,-0.134521,-0.986572,-0.032959,0.00,0.00,0.00
730,-9.946565,-22.244275,9.664122,-0.140137,-0.987061,-0.053711,0.00,0.00,0.00
731,-10.251908,-24.541985,9.244275,-0.150146,-0.990479,-0.055664,0.00,0.00,0.00
732,-10.870229,-27.328244,8.190840,-0.157227,-0.984863,-0.047363,0.00,0.00,0.00
733,-11.198473,-30.167939,7.625954,-0.150146,-0.988525,-0.038330,0.00,0.00,0.00
734,-11.381679,-34.106870,6.259542,-0.160889,-0.992920,-0.033203,0.00,0.00,0.00
735,-11.770992,-38.358779,5.167939,-0.173828,-0.984131,-0.024414,0.00,0.00,0.00
736,-12.114504,-42.465649,3.961832,-0.199951,-0.981445,-0.004395,0.00,0.00,0.00
737,-12.824427,-46.679389,3.145038,-0.211426,-0.979980,0.014648,0.00,0.00,0.00
738,-12.832061,-51.709924,2.664122,-0.219727,-0.969482,0.014404,0.00,0.00,0.00
739,-13.312977,-56.213740,2.076336,-0.214844,-0.957275,0.022461,0.00,0.00,0.00
740,-14.030534,-59.709924,1.152672,-0.208496,-0.952637,0.012207,0.00,0.00,0.00
741,-14.007634,-62.396947,0.992366,-0.211670,-0.938477,-0.010742,0.00,0.00,0.00
742,-14.198473,-63.969466,0.977099,-0.222412,-0.931641,-0.018555,0.00,0.00,0.00
743,-14.236641,-66.381679,1.496183,-0.226318,-0.927246,-0.041992,0.00,0.00,0.00
744,-14.633588,-69.854962,1.809160,-0.249268,-0.932373,-0.039062,0.00,0.00,0.00
745,-15.022901,-72.977099,1.946565,-0.254639,-0.935547,-0.042969,0.00,0.00,0.00
746,-15.687023,-75.893130,1.015267,-0.258057,-0.937256,-0.052246,0.00,0.00,0.00
747,-15.923664,-79.244275,0.396947,-0.281250,-0.937012,-0.053467,0.00,0.00,0.00
748,-16.419847,-82.763359,-0.992366,-0.310791,-0.946045,-0.086914,0.00,0.00,0.00
749,-16.725191,-86.206107,-2.015267,-0.309082,-0.944092,-0.095703,0.00,0.00,0.00
750,-16.923664,-88.946565,-2.984733,-0.309570,-0.942871,-0.098145,0.00,0.00,0.00
751,-17.251908,-91.694656,-3.603053,-0.303711,-0.937744,-0.071045,0.00,0.00,0.00
752,-17.671756,-94.969466,-4.580153,-0.309814,-0.946289,-0.079102,0.00,0.00,0.00
753,-17.931298,-96.396947,-6.129771,-0.289551,-0.945068,-0.074707,0.00,0.00,0.00
754,-18.106870,-98.656489,-7.671756,-0.265869,-0.951660,-0.064697,0.00,0.00,0.00
755,-18.122137,-98.351145,-8.824427,-0.248779,-0.952393,-0.071777,0.00,0.00,0.00
756,-18.175573,-100.068702,-9.992366,-0.219971,-0.955078,-0.066406,0.00,0.00,0.00
757,-18.251908,-100.442748,-10.641221,-0.208008,-0.958252,-0.053711,0.00,0.00,0.00
758,-18.465649,-97.625954,-11.328244,-0.203613,-0.958984,-0.051758,0.00,0.00,0.00
759,-19.099237,-96.732824,-12.045802,-0.199463,-0.973145,-0.033936,0.00,0.00,0.00
760,-19.061069,-96.007634,-12.916031,-0.197510,-0.973145,-0.023438,0.00,0.00,0.00
761,-19.152672,-94.236641,-13.755725,-0.188477,-0.967773,-0.010742,0.00,0.00,0.00
762,-19.259542,-91.984733,-14.480916,-0.177979,-0.958252,-0.001953,0.00,0.00,0.00
763,-19.473282,-90.656489,-15.091603,-0.163574,-0.955078,-0.004395,0.00,0.00,0.00
764,-19.832061,-89.152672,-16.038168,-0.166748,-0.940674,-0.003418,0.00,0.00,0.00
765,-19.679389,-85.732824,-16.641221,-0.161621,-0.956299,0.009521,0.00,0.00,0.00
766,-19.022901,-81.801527,-17.267176,-0.142578,-0.957275,0.012695,0.00,0.00,0.00
767,-18.427481,-79.442748,-17.786260,-0.131836,-0.961670,0.008545,0.00,0.00,0.00
768,-18.206107,-76.152672,-18.458015,-0.089844,-0.965820,0.011475,0.00,0.00,0.00
769,-17.671756,-70.832061,-19.374046,-0.034668,-0.992920,0.003662,0.00,0.00,0.00
770,-16.519084,-63.206107,-20.045802,0.026123,-1.019531,0.023193,0.00,0.00,0.00
771,-15.748092,-54.885496,-20.419847,0.060791,-1.028809,0.047852,0.00,0.00,0.00
772,-14.412214,-44.595420,-21.167939,0.082031,-1.026611,0.083740,0.00,0.00,0.00
773,-12.221374,-36.847328,-21.603053,0.081299,-1.034180,0.116699,0.00,0.00,0.00
774,-14.374046,-36.022901,-20.885496,-0.007080,-0.983643,0.033447,0.00,0.00,0.00
775,-16.450382,-37.839695,-19.030534,-0.115479,-0.960449,-0.018066,0.00,0.00,0.00
776,-18.328244,-38.709924,-17.816794,-0.177246,-0.955078,-0.059570,0.00,0.00,0.00
777,-18.885496,-37.755725,-17.076336,-0.156006,-0.978027,-0.069580,0.00,0.00,0.00
778,-18.022901,-36.580153,-16.511450,-0.122803,-0.986572,-0.060303,0.00,0.00,0.00
779,-17.000000,-34.587786,-16.839695,-0.125244,-0.967773,-0.045654,0.00,0.00,0.00
780,-16.656489,-34.786260,-17.702290,-0.147461,-0.950439,-0.024902,0.00,0.00,0.00
781,-16.595420,-37.145038,-18.175573,-0.164551,-0.939209,-0.008789,0.00,0.00,0.00
782,-17.351145,-39.938931,-18.335878,-0.169434,-0.944580,-0.025635,0.00,0.00,0.00
783,-17.625954,-40.984733,-18.312977,-0.133789,-0.972168,-0.070312,0.00,0.00,0.00
784,-17.618321,-41.251908,-17.954198,-0.109863,-0.971924,-0.105225,0.00,0.00,0.00
785,-17.732824,-37.984733,-17.900763,-0.056885,-0.972168,-0.117188,0.00,0.00,0.00
786,-16.160305,-33.427481,-17.206107,-0.032715,-0.986084,-0.117920,0.00,0.00,0.00
787,-15.190840,-28.893130,-16.366412,-0.014404,-0.994873,-0.110352,0.00,0.00,0.00
788,-14.297710,-24.274809,-16.129771,0.008789,-1.006592,-0.106445,0.00,0.00,0.00
789,-13.519084,-19.030534,-15.572519,0.043457,-1.013916,-0.104004,0.00,0.00,0.00
790,-12.503817,-13.137405,-14.236641,0.059326,-1.022705,-0.118896,0.00,0.00,0.00
791,-11.351145,-6.679389,-12.793893,0.063721,-1.030762,-0.110107,0.00,0.00,0.00
792,-10.465649,-0.839695,-10.694656,0.056396,-1.025635,-0.084229,0.00,0.00,0.00
793,-9.870229,3.305344,-9.267176,0.056396,-1.017090,-0.053955,0.00,0.00,0.00
794,-9.954198,5.992366,-8.053435,0.041992,-1.013184,-0.020264,0.00,0.00,0.00
795,-10.068702,7.335878,-7.251908,0.018066,-1.006104,-0.001953,0.00,0.00,0.00
796,-10.610687,7.503817,-7.045802,-0.000732,-1.012939,0.007812,0.00,0.00,0.00
797,-11.129771,6.213740,-6.984733,-0.020264,-1.011230,0.012207,0.00,0.00,0.00
798,-11.923664,4.236641,-6.488550,-0.035889,-1.009033,0.024170,0.00,0.00,0.00
799,-13.580153,2.229008,-6.175573,-0.037598,-0.999512,0.012207,0.00,0.00,0.00
800,-14.503817,-1.251908,-6.000000,-0.035156,-1.002930,0.019775,0.00,0.00,0.00
801,-15.389313,-3.938931,-5.618321,-0.030518,-1.004395,0.023682,0.00,0.00,0.00
802,-16.038168,-6.633588,-5.099237,-0.023926,-1.007568,0.006592,0.00,0.00,0.00
803,-16.305344,-7.167939,-4.709924,-0.013672,-0.996582,-0.020508,0.00,0.00,0.00
804,-16.114504,-6.770992,-4.076336,-0.004395,-0.991699,-0.025391,0.00,0.00,0.00
805,-15.893130,-6.053435,-3.007634,-0.001465,-0.981201,-0.050293,0.00,0.00,0.00
806,-16.213740,-4.778626,-1.664122,-0.009277,-0.981445,-0.069336,0.00,0.00,0.00
807,-15.847328,-2.664122,-0.320611,-0.012451,-0.981201,-0.083984,0.00,0.00,0.00
808,-15.442748,0.206107,0.969466,-0.015381,-0.981201,-0.103516,0.00,0.00,0.00
809,-14.938931,2.564885,1.961832,-0.004883,-0.973877,-0.106934,0.00,0.00,0.00
810,-13.893130,6.641221,3.305344,0.001709,-0.984131,-0.105225,0.00,0.00,0.00
811,-12.893130,10.183206,4.480916,0.012695,-0.985596,-0.102783,0.00,0.00,0.00
812,-12.167939,13.862595,5.610687,-0.005859,-0.996582,-0.088379,0.00,0.00,0.00
813,-11.770992,16.320611,6.404580,-0.025391,-0.996094,-0.077393,0.00,0.00,0.00
814,-11.572519,18.091603,6.816794,-0.044434,-0.989502,-0.070312,0.00,0.00,0.00
815,-11.793893,18.923664,7.198473,-0.065918,-0.985107,-0.047119,0.00,0.00,0.00
816,-12.122137,18.580153,7.152672,-0.089111,-0.982422,-0.042480,0.00,0.00,0.00
817,-12.786260,17.160305,7.076336,-0.089844,-0.972656,-0.054932,0.00,0.00,0.00
818,-13.045802,15.435115,7.076336,-0.089844,-0.988525,-0.053955,0.00,0.00,0.00
819,-12.893130,13.908397,6.824427,-0.092773,-0.989258,-0.065674,0.00,0.00,0.00
820,-13.160305,12.335878,6.656489,-0.094727,-0.988770,-0.067383,0.00,0.00,0.00
821,-13.488550,10.122137,6.366412,-0.097900,-0.989990,-0.070801,0.00,0.00,0.00
822,-13.862595,8.557252,6.358779,-0.109863,-0.987305,-0.075439,0.00,0.00,0.00
823,-14.106870,7.687023,6.259542,-0.117676,-0.985840,-0.074707,0.00,0.00,0.00
824,-14.740458,6.709924,5.854962,-0.108887,-0.978027,-0.091797,0.00,0.00,0.00
825,-14.374046,6.977099,5.595420,-0.100830,-0.970459,-0.101807,0.00,0.00,0.00
826,-14.221374,8.259542,5.465649,-0.080566,-0.973145,-0.111816,0.00,0.00,0.00
827,-13.916031,9.916031,5.259542,-0.068604,-0.973145,-0.110596,0.00,0.00,0.00
828,-13.625954,11.412214,6.022901,-0.058105,-0.986084,-0.101318,0.00,0.00,0.00
829,-13.206107,13.656489,6.030534,-0.055664,-0.986816,-0.094238,0.00,0.00,0.00
830,-13.343511,15.320611,6.145038,-0.054199,-0.982422,-0.107422,0.00,0.00,0.00
831,-13.244275,15.351145,6.419847,-0.075684,-0.976562,-0.102783,0.00,0.00,0.00
832,-13.541985,14.969466,6.343511,-0.109375,-0.979248,-0.102539,0.00,0.00,0.00
833,-13.564885,14.580153,5.778626,-0.128418,-0.980957,-0.094482,0.00,0.00,0.00
834,-14.137405,13.061069,5.320611,-0.142090,-0.975830,-0.094727,0.00,0.00,0.00
835,-14.916031,11.312977,4.763359,-0.152344,-0.969727,-0.089600,0.00,0.00,0.00
836,-15.236641,9.427481,4.274809,-0.144043,-0.974365,-0.095947,0.00,0.00,0.00
837,-15.534351,7.358779,4.129771,-0.130859,-0.974121,-0.106689,0.00,0.00,0.00
838,-15.541985,5.778626,3.603053,-0.117920,-0.975830,-0.111084,0.00,0.00,0.00
839,-15.381679,4.320611,3.473282,-0.118652,-0.983154,-0.130615,0.00,0.00,0.00
840,-15.335878,3.587786,3.145038,-0.119141,-0.974121,-0.141846,0.00,0.00,0.00
841,-14.954198,3.244275,3.175573,-0.109375,-0.984863,-0.154297,0.00,0.00,0.00
842,-14.351145,3.992366,3.114504,-0.103516,-0.969238,-0.150146,0.00,0.00,0.00
843,-13.908397,4.534351,3.404580,-0.101807,-0.971191,-0.149902,0.00,0.00,0.00
844,-13.572519,4.832061,3.580153,-0.092773,-0.964111,-0.138428,0.00,0.00,0.00
845,-13.603053,5.007634,3.709924,-0.090576,-0.979492,-0.135742,0.00,0.00,0.00
846,-13.114504,5.229008,3.778626,-0.094238,-0.976318,-0.146240,0.00,0.00,0.00
847,-13.152672,5.809160,3.793893,-0.106445,-0.979004,-0.121826,0.00,0.00,0.00
848,-13.770992,6.076336,4.053435,-0.113525,-0.970215,-0.085693,0.00,0.00,0.00
849,-14.114504,4.419847,4.091603,-0.104492,-0.972900,-0.090576,0.00,0.00,0.00
850,-14.137405,2.916031,4.534351,-0.088867,-0.973389,-0.091064,0.00,0.00,0.00
851,-14.167939,2.641221,4.473282,-0.075928,-0.979248,-0.107422,0.00,0.00,0.00
852,-14.015267,1.633588,4.526718,-0.082764,-0.981934,-0.115479,0.00,0.00,0.00
853,-13.893130,0.450382,4.748092,-0.090088,-0.986572,-0.119385,0.00,0.00,0.00
854,-14.022901,-1.068702,5.083969,-0.097656,-0.990723,-0.119629,0.00,0.00,0.00
855,-13.984733,-2.145038,5.190840,-0.108887,-0.977783,-0.131348,0.00,0.00,0.00
856,-13.664122,-1.885496,5.473282,-0.103516,-0.971924,-0.143799,0.00,0.00,0.00
857,-13.343511,-0.893130,5.732824,-0.078857,-0.969727,-0.136963,0.00,0.00,0.00
858,-13.076336,0.114504,6.351145,-0.067383,-0.977295,-0.148682,0.00,0.00,0.00
859,-12.564885,0.557252,6.786260,-0.055664,-0.983643,-0.147217,0.00,0.00,0.00
860,-11.885496,0.885496,7.290076,-0.061279,-0.988281,-0.147217,0.00,0.00,0.00
861,-11.648855,1.274809,7.625954,-0.071533,-0.985352,-0.149170,0.00,0.00,0.00
862,-11.175573,1.778626,7.893130,-0.099854,-0.983643,-0.154297,0.00,0.00,0.00
863,-11.000000,1.961832,7.938931,-0.111328,-0.974121,-0.159180,0.00,0.00,0.00
864,-10.679389,2.152672,8.152672,-0.116943,-0.984375,-0.166992,0.00,0.00,0.00
865,-10.404580,1.656489,8.183206,-0.114502,-0.979980,-0.177246,0.00,0.00,0.00
866,-9.877863,0.618321,8.175573,-0.105225,-0.984619,-0.181152,0.00,0.00,0.00
867,-9.068702,0.007634,8.290076,-0.107666,-0.982422,-0.189697,0.00,0.00,0.00
868,-8.625954,-0.267176,8.687023,-0.115234,-0.973877,-0.169678,0.00,0.00,0.00
869,-8.480916,-0.709924,8.679389,-0.119873,-0.974854,-0.164551,0.00,0.00,0.00
870,-8.511450,-1.938931,8.580153,-0.115234,-0.964600,-0.151611,0.00,0.00,0.00
871,-8.305344,-2.465649,8.893130,-0.113770,-0.976318,-0.162842,0.00,0.00,0.00
872,-7.755725,-2.312977,9.022901,-0.100342,-0.978760,-0.172119,0.00,0.00,0.00
873,-7.419847,-1.702290,9.404580,-0.089355,-0.983887,-0.165527,0.00,0.00,0.00
874,-7.412214,-1.068702,10.053435,-0.082275,-0.976074,-0.151123,0.00,0.00,0.00
875,-7.312977,-0.916031,10.290076,-0.079834,-0.977783,-0.143799,0.00,0.00,0.00
876,-7.099237,-0.801527,10.816794,-0.081055,-0.972168,-0.146484,0.00,0.00,0.00
877,-6.732824,-0.541985,10.893130,-0.092041,-0.976318,-0.147705,0.00,0.00,0.00
878,-6.427481,-0.419847,11.076336,-0.104736,-0.970215,-0.154053,0.00,0.00,0.00
879,-6.450382,-0.282443,11.206107,-0.127441,-0.963135,-0.152588,0.00,0.00,0.00
880,-6.458015,0.000000,11.122137,-0.126465,-0.967285,-0.157715,0.00,0.00,0.00
881,-6.534351,0.618321,11.343511,-0.115967,-0.965332,-0.146484,0.00,0.00,0.00
882,-6.175573,0.290076,11.251908,-0.111084,-0.977783,-0.151367,0.00,0.00,0.00
883,-6.206107,-0.572519,11.244275,-0.118164,-0.971191,-0.141846,0.00,0.00,0.00
884,-6.297710,-0.755725,11.068702,-0.125732,-0.974609,-0.144775,0.00,0.00,0.00
885,-5.931298,-0.625954,10.679389,-0.145508,-0.968018,-0.158447,0.00,0.00,0.00
886,-5.908397,0.038168,10.603053,-0.147461,-0.958008,-0.164551,0.00,0.00,0.00
887,-5.755725,0.419847,9.977099,-0.150391,-0.962402,-0.159424,0.00,0.00,0.00
888,-5.824427,0.083969,9.587786,-0.156738,-0.957031,-0.159912,0.00,0.00,0.00
889,-5.793893,-0.343511,9.038168,-0.162354,-0.965576,-0.170166,0.00,0.00,0.00
890,-5.893130,-0.595420,8.412214,-0.164795,-0.966553,-0.153320,0.00,0.00,0.00
891,-5.603053,-0.541985,7.725191,-0.157471,-0.958008,-0.166260,0.00,0.00,0.00
892,-5.679389,-0.564885,7.114504,-0.167969,-0.961914,-0.171875,0.00,0.00,0.00
893,-5.625954,-0.404580,6.557252,-0.171387,-0.960693,-0.160156,0.00,0.00,0.00
894,-5.931298,-0.114504,5.977099,-0.173828,-0.958252,-0.141113,0.00,0.00,0.00
895,-6.221374,1.740458,5.022901,-0.174072,-0.954834,-0.126465,0.00,0.00,0.00
896,-6.450382,4.305344,4.053435,-0.163574,-0.961914,-0.112305,0.00,0.00,0.00
897,-6.816794,5.183206,3.000000,-0.145264,-0.965820,-0.108398,0.00,0.00,0.00
898,-7.488550,4.427481,2.358779,-0.155273,-0.972168,-0.100586,0.00,0.00,0.00
899,-8.374046,4.381679,1.343511,-0.176514,-0.961426,-0.112549,0.00,0.00,0.00
900,-8.977099,4.793893,0.328244,-0.195068,-0.958496,-0.129150,0.00,0.00,0.00
901,-9.083969,4.832061,-0.908397,-0.199463,-0.960449,-0.149902,0.00,0.00,0.00
902,-9.473282,3.786260,-2.175573,-0.197266,-0.956543,-0.154053,0.00,0.00,0.00
903,-9.755725,2.557252,-3.030534,-0.204590,-0.960693,-0.160889,0.00,0.00,0.00
904,-9.870229,1.290076,-3.748092,-0.200928,-0.952881,-0.184082,0.00,0.00,0.00
905,-9.778626,0.916031,-4.427481,-0.172607,-0.957520,-0.180420,0.00,0.00,0.00
906,-9.351145,0.190840,-5.030534,-0.157227,-0.963623,-0.196045,0.00,0.00,0.00
907,-9.076336,0.236641,-4.984733,-0.151611,-0.963623,-0.190186,0.00,0.00,0.00
908,-8.984733,0.526718,-5.427481,-0.146240,-0.964111,-0.194824,0.00,0.00,0.00
909,-8.748092,1.290076,-5.572519,-0.145264,-0.961426,-0.187256,0.00,0.00,0.00
910,-8.587786,2.534351,-5.709924,-0.128906,-0.964355,-0.169189,0.00,0.00,0.00
911,-8.366412,2.862595,-5.709924,-0.128906,-0.966553,-0.158936,0.00,0.00,0.00
912,-8.343511,2.839695,-6.251908,-0.131836,-0.976074,-0.157227,0.00,0.00,0.00
913,-8.534351,2.954198,-6.442748,-0.134277,-0.966797,-0.160889,0.00,0.00,0.00
914,-8.732824,2.770992,-6.854962,-0.152100,-0.968994,-0.174316,0.00,0.00,0.00
915,-8.755725,2.244275,-7.190840,-0.156006,-0.962402,-0.169434,0.00,0.00,0.00
916,-8.992366,1.167939,-7.977099,-0.173828,-0.964844,-0.173828,0.00,0.00,0.00
917,-9.221374,-0.068702,-8.633588,-0.172363,-0.960449,-0.169434,0.00,0.00,0.00
918,-9.274809,-0.984733,-9.389313,-0.166748,-0.960449,-0.173340,0.00,0.00,0.00
919,-9.129771,-1.824427,-10.015267,-0.159424,-0.961182,-0.185059,0.00,0.00,0.00
920,-9.045802,-2.473282,-10.236641,-0.152588,-0.961914,-0.190430,0.00,0.00,0.00
921,-9.221374,-2.419847,-10.526718,-0.145996,-0.970459,-0.189209,0.00,0.00,0.00
922,-8.847328,-2.137405,-10.648855,-0.129639,-0.965820,-0.195068,0.00,0.00,0.00
923,-8.656489,-1.664122,-10.648855,-0.116455,-0.968750,-0.201172,0.00,0.00,0.00
924,-8.618321,-1.496183,-10.335878,-0.110596,-0.969727,-0.192139,0.00,0.00,0.00
925,-8.381679,-1.083969,-10.030534,-0.096191,-0.971191,-0.189453,0.00,0.00,0.00
926,-7.824427,0.786260,-9.664122,-0.088623,-0.962891,-0.179688,0.00,0.00,0.00
927,-7.755725,2.442748,-9.221374,-0.081299,-0.967285,-0.165527,0.00,0.00,0.00
928,-8.045802,2.572519,-8.519084,-0.087158,-0.965820,-0.149658,0.00,0.00,0.00
929,-8.526718,2.229008,-8.488550,-0.106445,-0.976074,-0.143066,0.00,0.00,0.00
930,-8.770992,1.068702,-8.946565,-0.136475,-0.964844,-0.156738,0.00,0.00,0.00
931,-8.839695,0.587786,-9.770992,-0.153809,-0.971191,-0.167969,0.00,0.00,0.00
932,-9.175573,-0.656489,-10.503817,-0.157715,-0.966064,-0.184082,0.00,0.00,0.00
933,-9.458015,-1.625954,-11.038168,-0.162842,-0.960938,-0.188477,0.00,0.00,0.00
934,-9.534351,-2.694656,-11.687023,-0.134521,-0.972168,-0.195801,0.00,0.00,0.00
935,-8.862595,-2.969466,-11.977099,-0.111572,-0.975098,-0.209717,0.00,0.00,0.00
936,-8.603053,-1.931298,-11.656489,-0.093994,-0.969971,-0.214600,0.00,0.00,0.00
937,-7.938931,-1.274809,-11.618321,-0.094727,-0.962158,-0.222168,0.00,0.00,0.00
938,-7.503817,-0.587786,-11.083969,-0.095215,-0.973877,-0.223877,0.00,0.00,0.00
939,-7.000000,-0.038168,-10.641221,-0.098145,-0.971680,-0.228027,0.00,0.00,0.00
940,-6.870229,0.320611,-10.648855,-0.100586,-0.975098,-0.217529,0.00,0.00,0.00
941,-6.312977,0.847328,-10.335878,-0.098145,-0.970215,-0.208008,0.00,0.00,0.00
942,-6.274809,1.381679,-10.190840,-0.093994,-0.964111,-0.195312,0.00,0.00,0.00
943,-6.167939,1.412214,-10.030534,-0.087402,-0.969238,-0.181641,0.00,0.00,0.00
944,-6.213740,1.236641,-9.732824,-0.087646,-0.975098,-0.181152,0.00,0.00,0.00
945,-6.374046,0.099237,-9.755725,-0.092285,-0.973877,-0.164307,0.00,0.00,0.00
946,-6.618321,-1.099237,-9.786260,-0.113281,-0.965820,-0.176514,0.00,0.00,0.00
947,-6.732824,-1.870229,-10.419847,-0.127686,-0.962402,-0.176758,0.00,0.00,0.00
948,-6.763359,-2.290076,-10.885496,-0.129395,-0.964600,-0.188721,0.00,0.00,0.00
949,-6.503817,-2.702290,-11.251908,-0.126465,-0.962646,-0.198486,0.00,0.00,0.00
950,-6.656489,-3.114504,-11.564885,-0.109375,-0.968506,-0.220947,0.00,0.00,0.00
951,-6.000000,-3.511450,-11.641221,-0.104004,-0.974609,-0.220947,0.00,0.00,0.00
952,-5.519084,-2.923664,-11.587786,-0.110352,-0.963623,-0.226074,0.00,0.00,0.00
953,-5.381679,-2.374046,-11.816794,-0.110840,-0.964844,-0.226074,0.00,0.00,0.00
954,-5.213740,-2.503817,-11.885496,-0.103271,-0.966797,-0.224365,0.00,0.00,0.00
955,-4.557252,-2.122137,-12.145038,-0.107178,-0.963379,-0.219971,0.00,0.00,0.00
956,-5.007634,-3.122137,-12.259542,-0.111572,-0.963135,-0.230957,0.00,0.00,0.00
957,-4.496183,-3.328244,-12.244275,-0.110107,-0.974121,-0.223633,0.00,0.00,0.00
958,-4.076336,-3.534351,-12.221374,-0.079590,-0.966309,-0.231689,0.00,0.00,0.00
959,-3.427481,-3.580153,-11.877863,-0.072510,-0.970947,-0.215820,0.00,0.00,0.00
960,-3.770992,-3.625954,-12.045802,-0.055908,-0.977783,-0.222168,0.00,0.00,0.00
961,-3.152672,-3.587786,-11.572519,-0.065430,-0.983643,-0.203125,0.00,0.00,0.00
962,-3.000000,-3.480916,-11.297710,-0.074463,-0.984619,-0.207520,0.00,0.00,0.00
963,-3.404580,-3.335878,-10.984733,-0.072266,-0.967773,-0.190918,0.00,0.00,0.00
964,-3.312977,-2.969466,-10.625954,-0.070312,-0.955566,-0.186523,0.00,0.00,0.00
965,-3.419847,-3.549618,-10.480916,-0.065430,-0.962891,-0.171143,0.00,0.00,0.00
966,-3.862595,-4.809160,-10.251908,-0.060059,-0.971680,-0.187988,0.00,0.00,0.00
967,-3.557252,-5.992366,-9.900763,-0.087158,-0.978271,-0.197754,0.00,0.00,0.00
968,-3.687023,-5.809160,-10.603053,-0.055420,-0.975830,-0.198486,0.00,0.00,0.00
969,-3.381679,-5.480916,-9.786260,-0.070312,-0.969482,-0.223877,0.00,0.00,0.00
970,-2.557252,-6.145038,-9.068702,-0.088379,-0.952393,-0.216309,0.00,0.00,0.00
971,-3.183206,-6.358779,-9.984733,-0.060303,-0.968262,-0.220215,0.00,0.00,0.00
972,-2.267176,-5.786260,-9.137405,-0.044189,-0.970947,-0.218506,0.00,0.00,0.00
973,-1.106870,-6.381679,-7.435115,-0.061523,-0.972656,-0.216553,0.00,0.00,0.00
974,-1.618321,-5.366412,-8.610687,-0.046875,-0.978027,-0.235596,0.00,0.00,0.00
975,-0.893130,-3.984733,-7.648855,-0.034912,-0.976074,-0.226807,0.00,0.00,0.00
976,-0.358779,-3.282443,-6.679389,-0.038330,-0.970459,-0.222900,0.00,0.00,0.00
977,-0.068702,-2.687023,-5.709924,-0.030029,-0.970703,-0.204834,0.00,0.00,0.00
978,0.229008,-2.534351,-4.480916,-0.034668,-0.968994,-0.183594,0.00,0.00,0.00
979,0.045802,-2.511450,-5.061069,-0.010010,-0.983887,-0.194580,0.00,0.00,0.00
980,0.694656,-1.641221,-3.969466,-0.032959,-0.989746,-0.195068,0.00,0.00,0.00
981,0.793893,-1.221374,-3.824427,-0.062500,-0.979492,-0.197021,0.00,0.00,0.00
982,0.847328,-1.587786,-3.870229,-0.076904,-0.975342,-0.216553,0.00,0.00,0.00
983,1.198473,-1.458015,-4.129771,-0.084229,-0.971924,-0.216797,0.00,0.00,0.00
984,1.496183,-1.832061,-4.236641,-0.085938,-0.967041,-0.220215,0.00,0.00,0.00
985,2.114504,-2.213740,-4.587786,-0.077393,-0.961914,-0.220215,0.00,0.00,0.00
986,2.229008,-2.358779,-4.076336,-0.071045,-0.971191,-0.218262,0.00,0.00,0.00
987,2.961832,-2.770992,-3.870229,-0.089844,-0.967285,-0.220947,0.00,0.00,0.00
988,2.694656,-2.648855,-5.366412,-0.035645,-0.964844,-0.215088,0.00,0.00,0.00
989,3.335878,-3.633588,-3.862595,-0.056152,-0.976807,-0.236084,0.00,0.00,0.00
990,3.816794,-1.786260,-3.748092,-0.087891,-0.973145,-0.211914,0.00,0.00,0.00
991,3.625954,-2.839695,-3.809160,-0.064209,-0.972900,-0.233643,0.00,0.00,0.00
992,4.366412,-1.992366,-4.091603,-0.065918,-0.971191,-0.218994,0.00,0.00,0.00
993,4.770992,-2.412214,-3.770992,-0.057617,-0.975098,-0.213867,0.00,0.00,0.00
994,5.106870,-2.251908,-3.671756,-0.066162,-0.966797,-0.213379,0.00,0.00,0.00
995,5.244275,-1.343511,-3.778626,-0.064941,-0.968506,-0.201416,0.00,0.00,0.00
996,5.465649,-0.351145,-3.458015,-0.059082,-0.971924,-0.207275,0.00,0.00,0.00
997,5.679389,0.442748,-3.435115,-0.061279,-0.978027,-0.202148,0.00,0.00,0.00
998,5.625954,0.847328,-3.519084,-0.062988,-0.976074,-0.191895,0.00,0.00,0.00
999,5.687023,1.000000,-3.809160,-0.069092,-0.966797,-0.194336,0.00,0.00,0.00
1000,5.862595,1.175573,-4.167939,-0.092285,-0.967285,-0.197266,0.00,0.00,0.00
1001,5.862595,1.015267,-4.717557,-0.094727,-0.970703,-0.199707,0.00,0.00,0.00
1002,5.862595,0.656489,-5.358779,-0.110107,-0.973633,-0.198486,0.00,0.00,0.00
1003,5.992366,0.381679,-6.007634,-0.103027,-0.972168,-0.204590,0.00,0.00,0.00
1004,6.160305,-0.152672,-6.404580,-0.091309,-0.974365,-0.211182,0.00,0.00,0.00
1005,6.229008,-0.526718,-6.908397,-0.090332,-0.973145,-0.207275,0.00,0.00,0.00
1006,6.778626,-1.106870,-7.152672,-0.079834,-0.977539,-0.209961,0.00,0.00,0.00
1007,7.213740,-0.984733,-7.473282,-0.079834,-0.967529,-0.215820,0.00,0.00,0.00
1008,7.732824,-0.648855,-7.877863,-0.088135,-0.966064,-0.210938,0.00,0.00,0.00
1009,8.000000,-0.122137,-8.167939,-0.078125,-0.962646,-0.211182,0.00,0.00,0.00
1010,8.381679,0.549618,-8.412214,-0.062744,-0.967041,-0.219971,0.00,0.00,0.00
1011,8.992366,0.832061,-8.267176,-0.053223,-0.974854,-0.222168,0.00,0.00,0.00
1012,9.664122,0.656489,-8.053435,-0.045410,-0.984131,-0.219971,0.00,0.00,0.00
1013,10.099237,0.656489,-7.938931,-0.049072,-0.987305,-0.205811,0.00,0.00,0.00
1014,10.198473,0.274809,-7.679389,-0.062500,-0.982910,-0.218994,0.00,0.00,0.00
1015,10.679389,0.763359,-7.793893,-0.064941,-0.971924,-0.213379,0.00,0.00,0.00
1016,11.267176,0.603053,-7.916031,-0.072998,-0.976807,-0.216797,0.00,0.00,0.00
1017,11.664122,0.427481,-8.396947,-0.079346,-0.973145,-0.205078,0.00,0.00,0.00
1018,12.045802,0.015267,-8.595420,-0.076904,-0.971680,-0.210205,0.00,0.00,0.00
1019,12.320611,-0.404580,-8.954198,-0.072754,-0.973877,-0.203857,0.00,0.00,0.00
1020,12.625954,-1.068702,-8.809160,-0.067139,-0.969727,-0.207520,0.00,0.00,0.00
1021,13.190840,-1.061069,-9.083969,-0.058350,-0.968018,-0.206787,0.00,0.00,0.00
1022,13.671756,-0.564885,-8.793893,-0.047363,-0.974609,-0.209229,0.00,0.00,0.00
1023,14.053435,-0.152672,-8.312977,-0.031250,-0.979492,-0.206787,0.00,0.00,0.00
1024,14.801527,0.351145,-7.778626,-0.016846,-0.976318,-0.198730,0.00,0.00,0.00
1025,15.076336,1.290076,-7.251908,-0.003418,-0.979248,-0.193115,0.00,0.00,0.00
1026,15.488550,2.175573,-6.465649,-0.003662,-0.981201,-0.182617,0.00,0.00,0.00
1027,16.129771,3.396947,-5.656489,0.001953,-0.988525,-0.176514,0.00,0.00,0.00
1028,16.526718,3.969466,-5.053435,-0.004150,-0.986084,-0.183594,0.00,0.00,0.00
1029,16.748092,4.152672,-4.793893,-0.018555,-0.992920,-0.178711,0.00,0.00,0.00
1030,17.045802,4.404580,-4.465649,-0.024658,-0.988037,-0.184326,0.00,0.00,0.00
1031,17.442748,4.312977,-4.229008,-0.039795,-0.990723,-0.174316,0.00,0.00,0.00
1032,17.931298,4.412214,-4.038168,-0.042725,-0.980957,-0.178467,0.00,0.00,0.00
1033,18.458015,4.404580,-3.946565,-0.043213,-0.982422,-0.184326,0.00,0.00,0.00
1034,18.984733,4.389313,-3.969466,-0.034668,-0.992188,-0.190918,0.00,0.00,0.00
1035,19.465649,4.175573,-3.732824,-0.034424,-0.992676,-0.191650,0.00,0.00,0.00
1036,19.801527,4.167939,-3.664122,-0.040283,-0.993408,-0.179443,0.00,0.00,0.00
1037,20.412214,4.358779,-3.458015,-0.042236,-0.987549,-0.194336,0.00,0.00,0.00
1038,20.870229,4.824427,-3.435115,-0.042725,-0.985352,-0.186768,0.00,0.00,0.00
1039,21.206107,5.587786,-3.320611,-0.051025,-0.978027,-0.185791,0.00,0.00,0.00
1040,21.503817,6.358779,-3.465649,-0.041016,-0.977539,-0.170654,0.00,0.00,0.00
1041,21.931298,6.992366,-3.351145,-0.039307,-0.981201,-0.170898,0.00,0.00,0.00
1042,22.603053,6.900763,-3.404580,-0.051514,-0.983887,-0.172119,0.00,0.00,0.00
1043,22.793893,6.992366,-3.290076,-0.051758,-0.981934,-0.170654,0.00,0.00,0.00
1044,23.160305,6.862595,-3.732824,-0.059570,-0.986816,-0.160889,0.00,0.00,0.00
1045,23.641221,6.709924,-3.755725,-0.054932,-0.992188,-0.169922,0.00,0.00,0.00
1046,23.931298,6.893130,-3.671756,-0.042236,-0.988770,-0.166016,0.00,0.00,0.00
1047,24.419847,6.396947,-3.618321,-0.042725,-0.986328,-0.161865,0.00,0.00,0.00
1048,25.045802,6.396947,-3.900763,-0.040283,-0.987549,-0.149902,0.00,0.00,0.00
1049,25.190840,6.694656,-3.427481,-0.025391,-0.984375,-0.146484,0.00,0.00,0.00
1050,25.633588,6.862595,-3.244275,-0.042236,-0.985107,-0.147461,0.00,0.00,0.00
1051,26.106870,7.114504,-3.328244,-0.043213,-0.979248,-0.149414,0.00,0.00,0.00
1052,26.251908,7.404580,-3.458015,-0.050049,-0.991455,-0.123779,0.00,0.00,0.00
1053,26.389313,7.648855,-3.908397,-0.053955,-0.983643,-0.125732,0.00,0.00,0.00
1054,26.702290,7.809160,-3.961832,-0.055176,-0.983643,-0.127197,0.00,0.00,0.00
1055,26.702290,8.213740,-4.335878,-0.059814,-0.981445,-0.126953,0.00,0.00,0.00
1056,27.007634,8.587786,-4.694656,-0.058105,-0.987305,-0.128906,0.00,0.00,0.00
1057,27.007634,9.366412,-4.900763,-0.042969,-0.984375,-0.124512,0.00,0.00,0.00
1058,27.259542,9.557252,-5.198473,-0.038086,-0.982910,-0.105469,0.00,0.00,0.00
1059,27.465649,10.152672,-5.312977,-0.030029,-0.987305,-0.104492,0.00,0.00,0.00
1060,27.557252,10.977099,-5.389313,-0.033936,-0.983154,-0.115479,0.00,0.00,0.00
1061,27.633588,12.473282,-5.526718,-0.044678,-0.979004,-0.100830,0.00,0.00,0.00
1062,27.893130,13.656489,-5.717557,-0.040283,-0.973145,-0.108154,0.00,0.00,0.00
1063,28.068702,14.427481,-6.167939,-0.049072,-0.974854,-0.093262,0.00,0.00,0.00
1064,28.267176,14.343511,-6.381679,-0.043945,-0.973145,-0.099854,0.00,0.00,0.00
1065,28.351145,14.190840,-7.000000,-0.052734,-0.982178,-0.094238,0.00,0.00,0.00
1066,28.534351,15.106870,-7.580153,-0.062012,-0.988037,-0.105469,0.00,0.00,0.00
1067,28.641221,16.030534,-8.160305,-0.079834,-0.981201,-0.100342,0.00,0.00,0.00
1068,28.740458,16.145038,-8.580153,-0.079102,-0.976318,-0.088623,0.00,0.00,0.00
1069,28.335878,15.236641,-9.145038,-0.090332,-0.979736,-0.096924,0.00,0.00,0.00
1070,27.786260,14.328244,-9.213740,-0.093506,-0.978027,-0.080811,0.00,0.00,0.00
1071,27.145038,13.206107,-9.717557,-0.087891,-0.985596,-0.085938,0.00,0.00,0.00
1072,27.030534,11.381679,-10.221374,-0.069824,-0.986816,-0.091309,0.00,0.00,0.00
1073,26.908397,9.954198,-10.152672,-0.066895,-0.985352,-0.070557,0.00,0.00,0.00
1074,26.748092,8.465649,-10.557252,-0.060547,-0.998535,-0.066162,0.00,0.00,0.00
1075,26.404580,7.183206,-10.496183,-0.049072,-1.003418,-0.056641,0.00,0.00,0.00
1076,26.282443,5.320611,-10.618321,-0.034912,-1.000000,-0.060059,0.00,0.00,0.00
1077,25.755725,3.725191,-10.381679,-0.026611,-0.993408,-0.054199,0.00,0.00,0.00
1078,25.458015,1.931298,-10.045802,-0.021973,-0.987793,-0.082031,0.00,0.00,0.00
1079,24.694656,1.297710,-9.351145,-0.019043,-0.989990,-0.057129,0.00,0.00,0.00
1080,24.137405,0.885496,-8.877863,-0.020264,-0.990967,-0.053955,0.00,0.00,0.00
1081,23.656489,-0.175573,-8.557252,-0.022949,-0.998779,-0.064697,0.00,0.00,0.00
1082,23.282443,-0.832061,-7.900763,-0.025635,-0.996338,-0.059570,0.00,0.00,0.00
1083,22.961832,-2.038168,-7.877863,-0.021484,-1.002930,-0.063965,0.00,0.00,0.00
1084,22.671756,-3.335878,-7.687023,-0.023682,-1.006104,-0.061279,0.00,0.00,0.00
1085,22.244275,-4.267176,-7.557252,-0.020264,-1.010742,-0.068359,0.00,0.00,0.00
1086,21.770992,-5.343511,-7.541985,-0.016113,-1.020752,-0.070068,0.00,0.00,0.00
1087,21.587786,-6.213740,-7.259542,-0.016113,-1.028076,-0.084717,0.00,0.00,0.00
1088,21.450382,-6.305344,-7.511450,-0.013916,-1.031982,-0.088867,0.00,0.00,0.00
1089,21.274809,-7.290076,-7.679389,-0.022217,-1.033936,-0.081787,0.00,0.00,0.00
1090,21.007634,-8.328244,-7.709924,-0.040771,-1.036865,-0.086670,0.00,0.00,0.00
1091,20.412214,-9.511450,-8.282443,-0.070312,-1.036865,-0.096436,0.00,0.00,0.00
1092,20.083969,-10.519084,-9.229008,-0.089355,-1.037109,-0.108154,0.00,0.00,0.00
1093,18.816794,-12.045802,-9.801527,-0.111084,-1.035156,-0.106445,0.00,0.00,0.00
1094,17.633588,-14.305344,-10.396947,-0.128906,-1.038818,-0.104736,0.00,0.00,0.00
1095,15.664122,-15.870229,-11.343511,-0.115723,-1.052734,-0.116455,0.00,0.00,0.00
1096,14.809160,-16.656489,-11.809160,-0.113281,-1.031006,-0.117920,0.00,0.00,0.00
1097,14.198473,-17.183206,-11.770992,-0.114502,-1.021729,-0.114990,0.00,0.00,0.00
1098,12.625954,-17.320611,-11.687023,-0.103516,-1.019043,-0.100830,0.00,0.00,0.00
1099,11.091603,-16.969466,-11.709924,-0.086426,-1.009766,-0.109863,0.00,0.00,0.00
1100,10.099237,-15.328244,-11.557252,-0.062012,-1.017334,-0.105469,0.00,0.00,0.00
1101,9.091603,-13.473282,-11.190840,-0.050537,-1.013184,-0.123047,0.00,0.00,0.00
1102,7.618321,-10.885496,-10.709924,-0.030518,-1.011719,-0.118896,0.00,0.00,0.00
1103,5.389313,-8.786260,-9.786260,-0.027344,-1.009277,-0.143311,0.00,0.00,0.00
1104,3.412214,-4.671756,-8.480916,-0.035889,-0.994141,-0.163818,0.00,0.00,0.00
1105,0.740458,-0.488550,-6.442748,-0.056152,-0.979004,-0.187500,0.00,0.00,0.00
1106,-1.267176,2.343511,-4.129771,-0.101074,-0.959961,-0.207275,0.00,0.00,0.00
1107,-3.564885,3.603053,-2.312977,-0.127197,-0.937256,-0.233398,0.00,0.00,0.00
1108,-6.519084,5.450382,-0.091603,-0.150635,-0.915039,-0.270020,0.00,0.00,0.00
1109,-9.717557,6.435115,2.068702,-0.174805,-0.897705,-0.288574,0.00,0.00,0.00
1110,-12.083969,6.099237,4.290076,-0.187988,-0.903320,-0.304199,0.00,0.00,0.00
1111,-13.343511,5.274809,6.610687,-0.211670,-0.916504,-0.285645,0.00,0.00,0.00
1112,-14.282443,2.839695,8.175573,-0.221191,-0.927490,-0.260010,0.00,0.00,0.00
1113,-16.114504,-1.603053,8.694656,-0.238037,-0.947998,-0.240234,0.00,0.00,0.00
1114,-16.190840,-4.580153,8.000000,-0.204102,-0.958740,-0.228271,0.00,0.00,0.00
1115,-16.229008,-8.923664,9.038168,-0.204590,-0.964600,-0.229004,0.00,0.00,0.00
1116,-16.427481,-13.977099,9.564885,-0.236816,-0.957520,-0.220947,0.00,0.00,0.00
1117,-16.511450,-18.656489,9.931298,-0.248291,-0.956055,-0.215820,0.00,0.00,0.00
1118,-16.641221,-22.916031,10.717557,-0.238037,-0.948730,-0.195312,0.00,0.00,0.00
1119,-17.000000,-26.519084,11.343511,-0.215332,-0.930420,-0.189209,0.00,0.00,0.00
1120,-17.358779,-29.381679,11.954198,-0.199219,-0.924805,-0.194336,0.00,0.00,0.00
1121,-17.816794,-30.351145,12.564885,-0.176025,-0.917480,-0.174072,0.00,0.00,0.00
1122,-18.282443,-30.961832,13.328244,-0.154541,-0.917480,-0.180176,0.00,0.00,0.00
1123,-18.267176,-30.129771,14.015267,-0.129150,-0.916992,-0.158203,0.00,0.00,0.00
1124,-19.106870,-28.366412,14.213740,-0.116943,-0.920410,-0.153809,0.00,0.00,0.00
1125,-19.702290,-26.656489,14.923664,-0.098145,-0.922607,-0.153076,0.00,0.00,0.00
1126,-20.587786,-24.282443,15.664122,-0.093262,-0.934814,-0.142822,0.00,0.00,0.00
1127,-21.389313,-21.412214,16.251908,-0.087646,-0.937988,-0.133545,0.00,0.00,0.00
1128,-22.114504,-18.465649,16.854962,-0.081055,-0.930176,-0.122559,0.00,0.00,0.00
1129,-23.076336,-14.641221,17.793893,-0.067139,-0.935791,-0.105225,0.00,0.00,0.00
1130,-24.152672,-10.099237,18.893130,-0.059814,-0.931641,-0.092773,0.00,0.00,0.00
1131,-24.732824,-6.000000,19.992366,-0.044678,-0.930176,-0.070557,0.00,0.00,0.00
1132,-25.183206,-3.519084,20.824427,-0.044922,-0.935547,-0.051514,0.00,0.00,0.00
1133,-25.267176,-0.381679,21.832061,-0.044434,-0.935303,-0.031738,0.00,0.00,0.00
1134,-25.099237,1.969466,22.099237,-0.046143,-0.935547,-0.022217,0.00,0.00,0.00
1135,-25.137405,3.740458,22.351145,-0.041992,-0.943604,0.000000,0.00,0.00,0.00
1136,-25.030534,4.778626,22.404580,-0.041016,-0.967773,0.007568,0.00,0.00,0.00
1137,-24.725191,4.274809,22.343511,-0.045898,-1.009033,0.010742,0.00,0.00,0.00
1138,-24.221374,2.862595,22.129771,-0.049561,-1.022705,0.024658,0.00,0.00,0.00
1139,-22.748092,1.099237,21.396947,-0.051758,-1.016357,0.020508,0.00,0.00,0.00
1140,-21.801527,-1.702290,20.656489,-0.050537,-1.011719,0.026611,0.00,0.00,0.00
1141,-21.267176,-4.664122,19.671756,-0.051270,-1.002197,0.028320,0.00,0.00,0.00
1142,-20.748092,-9.610687,18.412214,-0.051758,-1.018066,0.041504,0.00,0.00,0.00
1143,-20.282443,-14.854962,16.786260,-0.060791,-1.032959,0.020996,0.00,0.00,0.00
1144,-19.862595,-19.778626,15.328244,-0.060303,-1.038574,0.023193,0.00,0.00,0.00
1145,-19.633588,-24.541985,13.900763,-0.062500,-1.031738,0.013672,0.00,0.00,0.00
1146,-19.282443,-28.549618,12.526718,-0.053711,-1.022949,0.028564,0.00,0.00,0.00
1147,-19.877863,-32.480916,11.221374,-0.050537,-1.005859,0.016113,0.00,0.00,0.00
1148,-19.885496,-35.679389,10.465649,-0.022949,-1.001953,0.023682,0.00,0.00,0.00
1149,-20.061069,-38.312977,10.106870,-0.003174,-0.994629,-0.009277,0.00,0.00,0.00
1150,-19.717557,-40.145038,9.839695,0.013184,-1.001709,-0.018799,0.00,0.00,0.00
1151,-19.480916,-40.374046,9.832061,0.028076,-1.010254,-0.012451,0.00,0.00,0.00
1152,-19.442748,-39.977099,9.541985,0.030273,-1.016602,-0.016113,0.00,0.00,0.00
1153,-19.900763,-39.152672,9.221374,0.036377,-1.016113,-0.022217,0.00,0.00,0.00
1154,-19.656489,-38.267176,9.328244,0.040771,-1.015381,-0.025635,0.00,0.00,0.00
1155,-19.480916,-37.335878,9.129771,0.045654,-1.011475,-0.021973,0.00,0.00,0.00
1156,-18.900763,-36.519084,9.320611,0.036377,-1.009033,-0.006104,0.00,0.00,0.00
1157,-18.480916,-35.580153,9.977099,0.032959,-1.002441,-0.002441,0.00,0.00,0.00
1158,-18.045802,-34.595420,10.236641,0.028809,-1.006104,-0.009033,0.00,0.00,0.00
1159,-16.946565,-33.053435,10.664122,0.019531,-1.005127,-0.012939,0.00,0.00,0.00
1160,-16.045802,-31.511450,11.083969,0.022217,-0.997559,0.002197,0.00,0.00,0.00
1161,-15.160305,-29.610687,11.854962,0.024170,-0.993896,-0.002197,0.00,0.00,0.00
1162,-14.251908,-27.099237,12.717557,0.028809,-0.984863,0.006592,0.00,0.00,0.00
1163,-13.503817,-24.931298,13.656489,0.024414,-0.986328,-0.000244,0.00,0.00,0.00
1164,-12.885496,-22.358779,14.175573,0.029297,-0.979980,0.005371,0.00,0.00,0.00
1165,-11.931298,-19.473282,14.908397,0.028076,-0.986328,0.010010,0.00,0.00,0.00
1166,-11.496183,-17.435115,15.519084,0.034424,-0.982422,0.016846,0.00,0.00,0.00
1167,-11.145038,-15.755725,15.702290,0.036621,-0.986084,0.008057,0.00,0.00,0.00
1168,-10.687023,-14.572519,15.740458,0.016357,-1.001221,0.011475,0.00,0.00,0.00
1169,-10.038168,-13.167939,15.549618,0.009766,-1.007324,-0.002197,0.00,0.00,0.00
1170,-9.534351,-12.786260,15.206107,-0.004150,-0.998291,-0.006348,0.00,0.00,0.00
1171,-8.984733,-13.297710,14.877863,-0.015381,-0.995361,-0.007080,0.00,0.00,0.00
1172,-8.580153,-14.328244,14.793893,-0.027588,-0.988525,-0.002930,0.00,0.00,0.00
1173,-8.274809,-15.763359,14.893130,-0.034668,-0.986328,-0.003418,0.00,0.00,0.00
1174,-7.923664,-16.496183,14.519084,-0.024658,-0.982666,-0.009521,0.00,0.00,0.00
1175,-7.511450,-16.862595,14.671756,-0.015869,-0.979248,-0.011475,0.00,0.00,0.00
1176,-7.099237,-16.679389,14.656489,0.004150,-0.971191,-0.008057,0.00,0.00,0.00
1177,-6.877863,-16.290076,14.656489,0.010742,-0.977539,-0.024170,0.00,0.00,0.00
1178,-6.221374,-15.740458,14.633588,0.018799,-0.979980,-0.035400,0.00,0.00,0.00
1179,-5.854962,-14.022901,14.702290,0.022949,-0.986328,-0.040771,0.00,0.00,0.00
1180,-5.519084,-11.664122,14.572519,0.025391,-0.992676,-0.037842,0.00,0.00,0.00
1181,-5.099237,-9.648855,14.458015,0.030762,-0.991943,-0.020264,0.00,0.00,0.00
1182,-5.030534,-9.083969,14.152672,0.029053,-0.998047,-0.026367,0.00,0.00,0.00
1183,-4.977099,-9.022901,13.862595,0.028320,-0.990967,-0.020508,0.00,0.00,0.00
1184,-4.824427,-9.106870,13.450382,0.010498,-0.990479,-0.020020,0.00,0.00,0.00
1185,-4.366412,-9.664122,12.877863,-0.004639,-0.989746,-0.020508,0.00,0.00,0.00
1186,-3.877863,-11.290076,12.152672,-0.014404,-0.980225,-0.011719,0.00,0.00,0.00
1187,-3.442748,-13.931298,11.198473,-0.021973,-0.984863,-0.010498,0.00,0.00,0.00
1188,-3.305344,-17.106870,10.259542,-0.023926,-0.977051,-0.010254,0.00,0.00,0.00
1189,-3.320611,-20.534351,8.709924,-0.023682,-0.967041,-0.009766,0.00,0.00,0.00
1190,-3.290076,-23.893130,7.175573,-0.009521,-0.971680,-0.013916,0.00,0.00,0.00
1191,-3.519084,-27.129771,5.793893,0.007568,-0.979492,-0.023193,0.00,0.00,0.00
1192,-3.740458,-29.328244,4.618321,0.022705,-0.993896,-0.033447,0.00,0.00,0.00
1193,-3.595420,-31.847328,3.412214,0.027100,-0.995850,-0.042236,0.00,0.00,0.00
1194,-3.244275,-32.625954,2.282443,0.023926,-0.991943,-0.046875,0.00,0.00,0.00
1195,-3.076336,-32.496183,1.679389,0.021973,-0.991699,-0.042480,0.00,0.00,0.00
1196,-3.282443,-31.770992,0.809160,0.025635,-0.979004,-0.046143,0.00,0.00,0.00
1197,-3.427481,-30.312977,0.389313,0.030029,-0.972168,-0.052979,0.00,0.00,0.00
1198,-3.534351,-28.465649,0.106870,0.028320,-0.977295,-0.059082,0.00,0.00,0.00
1199,-3.557252,-26.793893,-0.175573,0.035889,-0.972168,-0.056396,0.00,0.00,0.00
1200,-3.435115,-24.977099,-0.503817,0.040283,-0.970703,-0.066406,0.00,0.00,0.00
1201,-3.480916,-23.053435,-0.770992,0.039307,-0.968750,-0.072754,0.00,0.00,0.00
1202,-3.725191,-20.473282,-1.145038,0.036621,-0.957031,-0.094238,0.00,0.00,0.00
1203,-3.358779,-18.664122,-1.725191,0.045410,-0.955078,-0.097656,0.00,0.00,0.00
1204,-2.694656,-17.290076,-2.251908,0.039795,-0.943604,-0.118408,0.00,0.00,0.00
1205,-2.290076,-15.534351,-2.961832,0.027100,-0.961914,-0.120605,0.00,0.00,0.00
1206,-1.786260,-14.435115,-3.526718,0.022217,-0.964600,-0.112549,0.00,0.00,0.00
1207,-1.465649,-12.801527,-4.083969,0.012207,-0.974365,-0.127197,0.00,0.00,0.00
1208,-1.587786,-11.244275,-4.190840,-0.000977,-0.978760,-0.124756,0.00,0.00,0.00
1209,-1.450382,-10.175573,-4.335878,-0.007568,-0.981201,-0.125244,0.00,0.00,0.00
1210,-1.358779,-8.778626,-4.190840,-0.022705,-0.971924,-0.121582,0.00,0.00,0.00
1211,-1.358779,-7.519084,-3.946565,-0.029053,-0.973877,-0.116211,0.00,0.00,0.00
1212,-1.396947,-5.984733,-3.862595,-0.039062,-0.961914,-0.126709,0.00,0.00,0.00
1213,-1.587786,-4.610687,-3.549618,-0.042969,-0.959229,-0.106934,0.00,0.00,0.00
1214,-1.656489,-3.236641,-3.480916,-0.035156,-0.957520,-0.128174,0.00,0.00,0.00
1215,-1.862595,-1.854962,-3.274809,-0.036377,-0.952881,-0.123047,0.00,0.00,0.00
1216,-1.679389,-0.549618,-2.931298,-0.032715,-0.956055,-0.127686,0.00,0.00,0.00
1217,-1.832061,0.511450,-2.503817,-0.034668,-0.943848,-0.100830,0.00,0.00,0.00
1218,-1.938931,1.839695,-2.351145,-0.043213,-0.943359,-0.102783,0.00,0.00,0.00
1219,-2.297710,3.381679,-1.816794,-0.043213,-0.938232,-0.099365,0.00,0.00,0.00
1220,-2.007634,4.572519,-1.267176,-0.036133,-0.933594,-0.094727,0.00,0.00,0.00
1221,-2.801527,2.053435,-0.961832,-0.028564,-0.916260,-0.169678,0.00,0.00,0.00
1222,-4.198473,-1.824427,1.198473,-0.093262,-0.907959,-0.223389,0.00,0.00,0.00
1223,-2.541985,-1.366412,3.870229,-0.187012,-0.942383,-0.171387,0.00,0.00,0.00
1224,1.022901,1.900763,5.984733,-0.248535,-0.996582,-0.072266,0.00,0.00,0.00
1225,3.335878,1.977099,7.862595,-0.260498,-1.011475,-0.005371,0.00,0.00,0.00
1226,4.129771,-0.603053,9.297710,-0.253418,-0.998291,-0.007812,0.00,0.00,0.00
1227,3.442748,-2.381679,11.351145,-0.262451,-0.961426,-0.057373,0.00,0.00,0.00
1228,2.297710,-1.412214,13.923664,-0.261719,-0.957031,-0.097412,0.00,0.00,0.00
1229,1.137405,-0.312977,15.625954,-0.242188,-0.958008,-0.102295,0.00,0.00,0.00
1230,0.442748,-2.122137,16.236641,-0.184326,-0.964111,-0.118164,0.00,0.00,0.00
1231,-0.244275,-4.175573,16.022901,-0.127197,-0.979492,-0.150146,0.00,0.00,0.00
1232,-0.946565,-3.832061,15.015267,-0.092041,-0.992188,-0.183838,0.00,0.00,0.00
1233,-1.213740,-1.473282,13.312977,-0.064697,-1.016113,-0.182373,0.00,0.00,0.00
1234,-1.328244,0.717557,11.725191,-0.061279,-1.048096,-0.176514,0.00,0.00,0.00
1235,0.709924,1.694656,10.396947,-0.100342,-1.072266,-0.122314,0.00,0.00,0.00
1236,0.893130,1.419847,9.511450,-0.133545,-1.073975,-0.102295,0.00,0.00,0.00
1237,1.648855,0.496183,8.748092,-0.152100,-1.076904,-0.074951,0.00,0.00,0.00
1238,2.022901,0.053435,8.259542,-0.166016,-1.056641,-0.062500,0.00,0.00,0.00
1239,2.007634,-0.862595,7.908397,-0.168213,-1.038330,-0.054443,0.00,0.00,0.00
1240,1.732824,-1.809160,7.786260,-0.159180,-1.018555,-0.044678,0.00,0.00,0.00
1241,1.305344,-2.488550,7.633588,-0.163818,-1.009521,-0.038330,0.00,0.00,0.00
1242,0.725191,-3.122137,7.328244,-0.155762,-0.998535,-0.052246,0.00,0.00,0.00
1243,0.366412,-3.580153,7.038168,-0.153320,-0.996094,-0.063965,0.00,0.00,0.00
1244,-0.618321,-4.015267,6.290076,-0.146484,-1.012939,-0.091064,0.00,0.00,0.00
1245,-1.503817,-3.900763,5.572519,-0.130127,-1.037109,-0.098633,0.00,0.00,0.00
1246,-2.076336,-3.534351,4.786260,-0.125977,-1.054688,-0.087646,0.00,0.00,0.00
1247,-2.877863,-2.916031,4.106870,-0.109131,-1.048584,-0.096680,0.00,0.00,0.00
1248,-3.068702,-2.450382,3.496183,-0.095703,-1.032227,-0.084473,0.00,0.00,0.00
1249,-3.129771,-2.312977,3.473282,-0.096924,-1.016113,-0.083984,0.00,0.00,0.00
1250,-3.442748,-1.862595,3.244275,-0.093018,-0.989502,-0.077637,0.00,0.00,0.00
1251,-3.328244,-1.557252,2.992366,-0.099365,-0.972412,-0.092285,0.00,0.00,0.00
1252,-3.488550,-1.641221,2.969466,-0.087646,-0.952881,-0.087891,0.00,0.00,0.00
1253,-3.603053,-2.244275,3.160305,-0.090820,-0.955322,-0.096680,0.00,0.00,0.00
1254,-3.717557,-2.763359,3.374046,-0.097412,-0.952393,-0.106934,0.00,0.00,0.00
1255,-3.786260,-2.992366,3.664122,-0.113037,-0.966553,-0.120117,0.00,0.00,0.00
1256,-3.923664,-2.793893,4.114504,-0.118164,-0.967041,-0.124756,0.00,0.00,0.00
1257,-4.045802,-2.175573,4.274809,-0.125977,-0.972412,-0.131348,0.00,0.00,0.00
1258,-3.809160,-1.419847,4.244275,-0.132324,-0.966797,-0.135986,0.00,0.00,0.00
1259,-3.900763,-0.954198,4.091603,-0.139893,-0.961426,-0.129395,0.00,0.00,0.00
1260,-4.091603,-0.793893,4.198473,-0.143066,-0.962646,-0.132568,0.00,0.00,0.00
1261,-3.992366,-0.748092,4.328244,-0.140137,-0.950928,-0.135986,0.00,0.00,0.00
1262,-4.076336,-1.213740,4.366412,-0.142090,-0.951172,-0.139648,0.00,0.00,0.00
1263,-3.816794,-1.763359,4.732824,-0.142090,-0.944580,-0.144531,0.00,0.00,0.00
1264,-3.961832,-1.946565,4.641221,-0.140625,-0.953125,-0.144043,0.00,0.00,0.00
1265,-3.656489,-2.061069,4.480916,-0.154541,-0.959717,-0.139648,0.00,0.00,0.00
1266,-3.465649,-2.198473,4.343511,-0.162842,-0.969727,-0.144043,0.00,0.00,0.00
1267,-3.534351,-2.351145,4.114504,-0.182129,-0.994629,-0.143066,0.00,0.00,0.00
1268,-3.740458,-2.435115,3.755725,-0.183350,-1.011963,-0.137695,0.00,0.00,0.00
1269,-4.145038,-2.496183,3.473282,-0.179688,-1.013916,-0.144531,0.00,0.00,0.00
1270,-4.160305,-2.900763,3.167939,-0.160156,-1.009033,-0.132324,0.00,0.00,0.00
1271,-4.114504,-2.679389,2.908397,-0.145508,-0.993896,-0.122803,0.00,0.00,0.00
1272,-4.145038,-2.870229,3.038168,-0.139404,-0.973633,-0.120850,0.00,0.00,0.00
1273,-4.137405,-3.206107,2.923664,-0.122314,-0.967041,-0.116699,0.00,0.00,0.00
1274,-3.870229,-3.236641,3.183206,-0.116211,-0.960938,-0.107666,0.00,0.00,0.00
1275,-4.045802,-3.106870,3.435115,-0.114746,-0.959717,-0.107178,0.00,0.00,0.00
1276,-4.236641,-2.931298,3.458015,-0.126953,-0.966309,-0.106689,0.00,0.00,0.00
1277,-4.358779,-2.748092,3.526718,-0.132568,-0.970459,-0.104492,0.00,0.00,0.00
1278,-4.564885,-2.534351,3.671756,-0.143066,-0.976807,-0.095703,0.00,0.00,0.00
1279,-4.938931,-2.396947,3.763359,-0.148926,-0.970947,-0.099854,0.00,0.00,0.00
1280,-5.038168,-2.320611,3.603053,-0.149414,-0.971680,-0.112305,0.00,0.00,0.00
1281,-5.404580,-2.366412,3.229008,-0.147217,-0.967773,-0.113770,0.00,0.00,0.00
1282,-5.816794,-2.396947,3.076336,-0.152344,-0.968506,-0.107666,0.00,0.00,0.00
1283,-6.175573,-2.335878,2.702290,-0.146973,-0.963379,-0.095215,0.00,0.00,0.00
1284,-6.610687,-2.641221,2.679389,-0.137451,-0.959961,-0.099365,0.00,0.00,0.00
1285,-6.763359,-2.809160,2.427481,-0.132568,-0.961426,-0.109131,0.00,0.00,0.00
1286,-7.000000,-2.908397,2.732824,-0.138672,-0.963623,-0.122070,0.00,0.00,0.00
1287,-6.992366,-2.748092,2.557252,-0.140869,-0.968262,-0.106934,0.00,0.00,0.00
1288,-7.229008,-2.526718,2.595420,-0.148926,-0.970703,-0.113037,0.00,0.00,0.00
1289,-7.435115,-3.000000,2.404580,-0.151367,-0.972656,-0.117432,0.00,0.00,0.00
1290,-7.938931,-3.511450,2.053435,-0.154541,-0.977051,-0.124268,0.00,0.00,0.00
1291,-8.015267,-3.351145,1.648855,-0.156006,-0.975830,-0.120850,0.00,0.00,0.00
1292,-7.969466,-2.893130,1.206107,-0.159668,-0.973145,-0.131836,0.00,0.00,0.00
1293,-7.961832,-2.297710,0.763359,-0.166748,-0.969971,-0.138428,0.00,0.00,0.00
1294,-8.129771,-1.961832,0.351145,-0.172119,-0.967041,-0.127686,0.00,0.00,0.00
1295,-8.045802,-1.305344,-0.122137,-0.171631,-0.965332,-0.130127,0.00,0.00,0.00
1296,-8.175573,-0.824427,-0.358779,-0.169434,-0.956055,-0.125977,0.00,0.00,0.00
1297,-8.312977,0.045802,-0.679389,-0.168945,-0.958740,-0.115723,0.00,0.00,0.00
1298,-8.847328,1.129771,-1.000000,-0.159668,-0.956787,-0.121094,0.00,0.00,0.00
1299,-9.137405,1.755725,-1.335878,-0.141357,-0.965576,-0.113281,0.00,0.00,0.00
1300,-9.328244,2.328244,-1.618321,-0.133057,-0.972656,-0.114746,0.00,0.00,0.00
1301,-9.274809,2.725191,-1.931298,-0.127441,-0.988525,-0.137207,0.00,0.00,0.00
1302,-9.335878,3.435115,-2.221374,-0.132324,-0.992920,-0.146240,0.00,0.00,0.00
1303,-9.183206,3.351145,-2.236641,-0.139404,-0.982422,-0.140381,0.00,0.00,0.00
1304,-9.022901,3.251908,-2.351145,-0.150146,-0.975586,-0.135986,0.00,0.00,0.00
1305,-9.221374,3.000000,-2.687023,-0.151855,-0.965088,-0.129150,0.00,0.00,0.00
1306,-9.320611,2.717557,-2.893130,-0.156006,-0.962646,-0.129639,0.00,0.00,0.00
1307,-9.488550,2.480916,-3.343511,-0.161133,-0.962891,-0.152588,0.00,0.00,0.00
1308,-9.305344,2.320611,-3.740458,-0.152344,-0.970703,-0.153809,0.00,0.00,0.00
1309,-9.091603,2.435115,-4.183206,-0.167236,-0.961914,-0.164795,0.00,0.00,0.00
1310,-9.099237,2.526718,-4.404580,-0.178955,-0.964600,-0.156738,0.00,0.00,0.00
1311,-8.908397,2.709924,-4.770992,-0.174072,-0.956055,-0.169434,0.00,0.00,0.00
1312,-8.916031,2.656489,-5.053435,-0.174316,-0.957275,-0.159180,0.00,0.00,0.00
1313,-8.832061,2.503817,-5.419847,-0.166992,-0.963135,-0.162842,0.00,0.00,0.00
1314,-8.511450,2.519084,-5.969466,-0.150635,-0.968262,-0.172119,0.00,0.00,0.00
1315,-8.099237,2.580153,-5.969466,-0.142822,-0.969971,-0.182617,0.00,0.00,0.00
1316,-7.671756,3.145038,-6.015267,-0.140625,-0.960449,-0.172119,0.00,0.00,0.00
1317,-7.633588,4.213740,-5.977099,-0.139404,-0.963867,-0.154541,0.00,0.00,0.00
1318,-7.473282,4.641221,-5.862595,-0.137207,-0.966553,-0.162842,0.00,0.00,0.00
1319,-7.396947,4.549618,-5.984733,-0.135010,-0.970703,-0.159912,0.00,0.00,0.00
1320,-7.435115,4.717557,-6.160305,-0.140137,-0.974121,-0.148682,0.00,0.00,0.00
1321,-7.274809,4.595420,-6.519084,-0.147217,-0.973633,-0.151611,0.00,0.00,0.00
1322,-7.305344,4.297710,-6.641221,-0.141602,-0.971924,-0.153809,0.00,0.00,0.00
1323,-7.450382,3.625954,-7.305344,-0.158203,-0.968262,-0.147461,0.00,0.00,0.00
1324,-7.687023,2.389313,-7.526718,-0.163330,-0.967041,-0.150879,0.00,0.00,0.00
1325,-7.625954,1.419847,-7.854962,-0.169678,-0.961914,-0.159668,0.00,0.00,0.00
1326,-7.763359,0.396947,-8.519084,-0.171387,-0.965576,-0.157227,0.00,0.00,0.00
1327,-7.725191,0.282443,-8.938931,-0.164062,-0.960693,-0.154785,0.00,0.00,0.00
1328,-7.916031,-0.099237,-9.328244,-0.144287,-0.967041,-0.174316,0.00,0.00,0.00
1329,-7.732824,-0.038168,-9.778626,-0.134277,-0.976562,-0.175293,0.00,0.00,0.00
1330,-7.488550,0.213740,-10.099237,-0.127441,-0.980469,-0.174316,0.00,0.00,0.00
1331,-7.061069,0.251908,-10.000000,-0.137451,-0.972168,-0.186768,0.00,0.00,0.00
1332,-7.068702,0.580153,-10.122137,-0.131348,-0.975098,-0.187988,0.00,0.00,0.00
1333,-6.534351,0.954198,-10.175573,-0.140137,-0.965332,-0.202881,0.00,0.00,0.00
1334,-6.198473,1.664122,-10.152672,-0.142334,-0.960938,-0.202881,0.00,0.00,0.00
1335,-5.358779,2.213740,-10.190840,-0.130615,-0.963623,-0.200439,0.00,0.00,0.00
1336,-5.007634,2.748092,-10.335878,-0.121338,-0.971680,-0.200439,0.00,0.00,0.00
1337,-4.519084,2.893130,-10.274809,-0.116211,-0.975342,-0.198975,0.00,0.00,0.00
1338,-4.045802,2.496183,-10.167939,-0.113037,-0.980225,-0.198242,0.00,0.00,0.00
1339,-3.709924,2.610687,-10.038168,-0.116699,-0.973389,-0.175537,0.00,0.00,0.00
1340,-3.496183,2.274809,-9.954198,-0.127441,-0.977783,-0.167969,0.00,0.00,0.00
1341,-3.305344,1.778626,-9.870229,-0.129639,-0.977539,-0.164551,0.00,0.00,0.00
1342,-3.343511,0.740458,-10.167939,-0.125488,-0.962891,-0.167725,0.00,0.00,0.00
1343,-3.198473,-0.557252,-10.633588,-0.137207,-0.969482,-0.166504,0.00,0.00,0.00
1344,-3.152672,-1.435115,-10.755725,-0.139648,-0.971191,-0.166016,0.00,0.00,0.00
1345,-3.251908,-2.061069,-11.091603,-0.147217,-0.968994,-0.183838,0.00,0.00,0.00
1346,-3.114504,-2.992366,-11.435115,-0.141846,-0.965576,-0.180664,0.00,0.00,0.00
1347,-3.045802,-3.442748,-11.557252,-0.142090,-0.968262,-0.177246,0.00,0.00,0.00
1348,-2.763359,-4.152672,-11.916031,-0.138184,-0.969238,-0.195557,0.00,0.00,0.00
1349,-2.183206,-4.099237,-12.122137,-0.118164,-0.968506,-0.204834,0.00,0.00,0.00
1350,-1.671756,-3.694656,-11.961832,-0.108643,-0.968018,-0.198730,0.00,0.00,0.00
1351,-1.366412,-3.465649,-11.641221,-0.112793,-0.975586,-0.201416,0.00,0.00,0.00
1352,-1.145038,-2.832061,-11.496183,-0.105469,-0.981201,-0.201416,0.00,0.00,0.00
1353,-0.648855,-2.328244,-11.267176,-0.105225,-0.976318,-0.200439,0.00,0.00,0.00
1354,-0.244275,-2.030534,-11.015267,-0.101074,-0.975830,-0.207031,0.00,0.00,0.00
1355,0.282443,-1.809160,-10.648855,-0.091553,-0.971191,-0.204346,0.00,0.00,0.00
1356,0.824427,-1.786260,-10.412214,-0.089600,-0.981201,-0.220703,0.00,0.00,0.00
1357,1.541985,-1.641221,-9.816794,-0.093994,-0.972412,-0.209961,0.00,0.00,0.00
1358,1.290076,-1.648855,-9.251908,-0.089355,-0.965820,-0.194580,0.00,0.00,0.00
1359,1.740458,-1.541985,-8.763359,-0.083740,-0.968506,-0.196777,0.00,0.00,0.00
1360,2.404580,-1.908397,-8.458015,-0.068359,-0.971436,-0.185303,0.00,0.00,0.00
1361,2.732824,-3.458015,-7.770992,-0.070312,-0.974121,-0.199219,0.00,0.00,0.00
1362,3.061069,-4.183206,-7.374046,-0.079346,-0.975586,-0.182861,0.00,0.00,0.00
1363,3.282443,-4.854962,-6.435115,-0.090820,-0.979248,-0.199463,0.00,0.00,0.00
1364,3.587786,-4.679389,-5.877863,-0.099609,-0.978271,-0.187500,0.00,0.00,0.00
1365,3.938931,-4.938931,-5.290076,-0.095459,-0.980957,-0.187256,0.00,0.00,0.00
1366,4.488550,-5.832061,-5.328244,-0.075684,-0.982422,-0.196777,0.00,0.00,0.00
1367,5.328244,-7.419847,-4.793893,-0.076416,-0.984619,-0.197510,0.00,0.00,0.00
1368,5.854962,-7.374046,-4.267176,-0.065918,-0.983154,-0.204834,0.00,0.00,0.00
1369,6.801527,-6.877863,-3.977099,-0.072021,-0.991455,-0.198975,0.00,0.00,0.00
1370,6.541985,-7.687023,-3.419847,-0.062500,-0.992920,-0.191406,0.00,0.00,0.00
1371,7.587786,-7.480916,-2.900763,-0.072021,-0.989258,-0.178955,0.00,0.00,0.00
1372,8.229008,-7.793893,-2.488550,-0.066895,-0.982178,-0.174072,0.00,0.00,0.00
1373,8.320611,-7.610687,-1.984733,-0.062500,-0.978516,-0.167236,0.00,0.00,0.00
1374,8.725191,-7.206107,-1.442748,-0.065186,-0.973389,-0.167725,0.00,0.00,0.00
1375,9.183206,-7.610687,-1.061069,-0.072754,-0.978516,-0.166260,0.00,0.00,0.00
1376,8.946565,-8.404580,-1.137405,-0.073975,-0.977783,-0.154053,0.00,0.00,0.00
1377,9.366412,-8.610687,-0.549618,-0.085693,-0.977295,-0.172607,0.00,0.00,0.00
1378,9.641221,-8.664122,-0.603053,-0.098389,-0.977295,-0.163330,0.00,0.00,0.00
1379,9.641221,-8.610687,-0.419847,-0.102539,-0.981445,-0.165527,0.00,0.00,0.00
1380,9.633588,-9.351145,-0.702290,-0.106201,-0.983643,-0.159912,0.00,0.00,0.00
1381,9.389313,-10.190840,-0.526718,-0.106934,-0.974609,-0.159912,0.00,0.00,0.00
1382,9.450382,-11.190840,-0.679389,-0.102295,-0.968750,-0.151855,0.00,0.00,0.00
1383,9.343511,-11.717557,-0.770992,-0.107910,-0.971436,-0.162598,0.00,0.00,0.00
1384,9.427481,-12.160305,-0.946565,-0.105957,-0.971924,-0.149414,0.00,0.00,0.00
1385,9.251908,-12.694656,-1.083969,-0.104736,-0.972656,-0.153320,0.00,0.00,0.00
1386,9.656489,-12.694656,-1.435115,-0.111084,-0.974365,-0.150879,0.00,0.00,0.00
1387,9.664122,-12.343511,-1.450382,-0.117188,-0.978516,-0.149658,0.00,0.00,0.00
1388,9.687023,-11.068702,-2.190840,-0.117188,-0.977539,-0.147705,0.00,0.00,0.00
1389,9.656489,-10.770992,-2.526718,-0.104248,-0.978271,-0.145264,0.00,0.00,0.00
1390,9.824427,-10.740458,-2.954198,-0.101318,-0.978516,-0.140869,0.00,0.00,0.00
1391,9.717557,-10.221374,-3.358779,-0.102539,-0.971924,-0.145508,0.00,0.00,0.00
1392,9.854962,-9.496183,-3.534351,-0.098877,-0.973145,-0.147217,0.00,0.00,0.00
1393,9.572519,-9.351145,-3.641221,-0.095215,-0.974854,-0.149658,0.00,0.00,0.00
1394,9.709924,-8.870229,-3.770992,-0.099121,-0.965820,-0.143799,0.00,0.00,0.00
1395,10.015267,-8.648855,-4.137405,-0.101807,-0.969482,-0.144287,0.00,0.00,0.00
1396,9.809160,-8.183206,-4.122137,-0.111084,-0.968018,-0.144775,0.00,0.00,0.00
1397,9.908397,-7.511450,-4.587786,-0.110840,-0.972168,-0.144775,0.00,0.00,0.00
1398,9.954198,-7.824427,-5.076336,-0.120117,-0.968018,-0.137207,0.00,0.00,0.00
1399,10.167939,-7.938931,-5.572519,-0.125488,-0.974121,-0.146484,0.00,0.00,0.00
1400,10.053435,-8.465649,-5.908397,-0.130615,-0.965088,-0.148193,0.00,0.00,0.00
1401,10.099237,-9.068702,-6.129771,-0.128174,-0.963379,-0.134766,0.00,0.00,0.00
1402,10.061069,-9.053435,-6.687023,-0.125244,-0.973877,-0.135254,0.00,0.00,0.00
1403,9.938931,-9.335878,-6.854962,-0.106689,-0.980713,-0.139893,0.00,0.00,0.00
1404,9.877863,-9.633588,-6.870229,-0.093018,-0.978271,-0.129395,0.00,0.00,0.00
1405,10.053435,-9.595420,-6.656489,-0.086426,-0.975830,-0.143311,0.00,0.00,0.00
1406,10.160305,-9.320611,-6.633588,-0.074219,-0.978760,-0.146240,0.00,0.00,0.00
1407,10.572519,-8.625954,-6.251908,-0.077637,-0.973633,-0.139404,0.00,0.00,0.00
1408,10.748092,-8.038168,-5.778626,-0.071045,-0.975830,-0.131592,0.00,0.00,0.00
1409,10.687023,-7.374046,-5.282443,-0.071533,-0.977295,-0.124268,0.00,0.00,0.00
1410,10.519084,-7.145038,-5.114504,-0.067139,-0.980469,-0.118164,0.00,0.00,0.00
1411,10.832061,-6.427481,-5.030534,-0.072998,-0.982178,-0.131348,0.00,0.00,0.00
1412,11.030534,-5.954198,-4.496183,-0.073486,-0.979492,-0.123535,0.00,0.00,0.00
1413,11.122137,-5.740458,-4.587786,-0.085449,-0.979248,-0.117432,0.00,0.00,0.00
1414,10.961832,-5.702290,-4.305344,-0.097656,-0.975098,-0.121826,0.00,0.00,0.00
1415,10.893130,-5.625954,-4.305344,-0.101074,-0.970947,-0.119141,0.00,0.00,0.00
1416,10.702290,-5.511450,-4.496183,-0.104248,-0.971191,-0.119873,0.00,0.00,0.00
1417,10.519084,-5.793893,-4.732824,-0.098877,-0.975586,-0.125732,0.00,0.00,0.00
1418,10.389313,-5.595420,-4.618321,-0.085205,-0.978027,-0.126953,0.00,0.00,0.00
1419,10.541985,-5.282443,-4.412214,-0.087891,-0.991455,-0.124512,0.00,0.00,0.00
1420,10.679389,-5.236641,-4.526718,-0.079346,-0.987793,-0.135010,0.00,0.00,0.00
1421,10.702290,-5.305344,-4.717557,-0.082275,-0.986084,-0.127197,0.00,0.00,0.00
1422,10.908397,-4.969466,-4.610687,-0.094971,-0.986572,-0.119385,0.00,0.00,0.00
1423,10.984733,-4.725191,-4.564885,-0.098877,-0.988037,-0.126465,0.00,0.00,0.00
1424,10.839695,-4.862595,-4.786260,-0.102295,-0.989258,-0.139160,0.00,0.00,0.00
1425,10.641221,-5.068702,-5.152672,-0.098145,-0.988525,-0.133057,0.00,0.00,0.00
1426,10.465649,-5.335878,-5.290076,-0.106201,-0.985352,-0.117432,0.00,0.00,0.00
1427,10.503817,-5.114504,-5.229008,-0.098389,-0.979004,-0.130127,0.00,0.00,0.00
1428,10.320611,-4.916031,-5.152672,-0.093506,-0.980225,-0.114990,0.00,0.00,0.00
1429,10.419847,-4.648855,-5.000000,-0.084717,-0.978271,-0.118164,0.00,0.00,0.00
1430,10.290076,-4.183206,-4.793893,-0.092285,-0.982910,-0.097412,0.00,0.00,0.00
1431,10.129771,-3.679389,-4.656489,-0.075439,-0.978027,-0.099609,0.00,0.00,0.00
1432,9.938931,-2.755725,-4.236641,-0.062256,-0.979492,-0.105957,0.00,0.00,0.00
1433,9.900763,-1.618321,-4.251908,-0.051514,-0.987793,-0.103516,0.00,0.00,0.00
1434,10.175573,-0.427481,-4.282443,-0.045898,-0.989990,-0.090576,0.00,0.00,0.00
1435,10.114504,1.038168,-3.954198,-0.039551,-0.998047,-0.090088,0.00,0.00,0.00
1436,9.900763,2.007634,-3.328244,-0.033691,-1.002441,-0.082275,0.00,0.00,0.00
1437,9.534351,3.290076,-2.816794,-0.039307,-0.993164,-0.069824,0.00,0.00,0.00
1438,9.374046,4.259542,-2.496183,-0.038818,-0.991211,-0.073975,0.00,0.00,0.00
1439,9.274809,5.862595,-1.656489,-0.030518,-0.985596,-0.070801,0.00,0.00,0.00
1440,9.595420,7.732824,-1.183206,-0.025146,-0.983398,-0.066162,0.00,0.00,0.00
1441,9.839695,10.053435,-0.610687,-0.030518,-0.984131,-0.066650,0.00,0.00,0.00
1442,10.167939,12.496183,-0.114504,-0.027588,-0.979980,-0.065186,0.00,0.00,0.00
1443,10.458015,14.160305,0.557252,-0.024658,-0.986816,-0.052734,0.00,0.00,0.00
1444,10.274809,15.641221,0.740458,-0.037842,-0.987793,-0.067627,0.00,0.00,0.00
1445,10.213740,17.259542,1.145038,-0.031250,-0.987061,-0.068604,0.00,0.00,0.00
1446,10.274809,18.816794,1.824427,-0.044434,-0.993652,-0.073486,0.00,0.00,0.00
1447,10.389313,20.328244,1.671756,-0.045166,-0.984131,-0.059082,0.00,0.00,0.00
1448,10.633588,21.610687,1.824427,-0.056885,-0.989258,-0.058594,0.00,0.00,0.00
1449,10.580153,22.251908,1.969466,-0.069580,-0.985596,-0.048096,0.00,0.00,0.00
1450,10.488550,21.816794,1.862595,-0.093506,-0.981689,-0.063965,0.00,0.00,0.00
1451,10.396947,21.106870,1.664122,-0.105225,-0.983643,-0.054932,0.00,0.00,0.00
1452,10.045802,19.687023,1.671756,-0.115234,-0.984131,-0.058594,0.00,0.00,0.00
1453,9.534351,17.847328,2.091603,-0.116943,-0.983154,-0.054932,0.00,0.00,0.00
1454,8.984733,15.526718,3.175573,-0.113525,-0.987061,-0.069580,0.00,0.00,0.00
1455,8.580153,14.297710,3.816794,-0.102783,-0.980957,-0.068848,0.00,0.00,0.00
1456,8.267176,13.916031,4.473282,-0.083008,-0.982422,-0.067871,0.00,0.00,0.00
1457,8.351145,13.946565,4.961832,-0.074463,-0.984375,-0.074707,0.00,0.00,0.00
1458,8.816794,14.427481,5.595420,-0.062500,-0.984375,-0.077637,0.00,0.00,0.00
1459,8.946565,14.511450,6.145038,-0.065430,-0.977539,-0.096680,0.00,0.00,0.00
1460,8.732824,16.015267,5.961832,-0.061279,-0.985596,-0.095215,0.00,0.00,0.00
1461,8.671756,16.969466,5.465649,-0.044678,-0.973389,-0.110596,0.00,0.00,0.00
1462,9.152672,16.190840,4.419847,-0.050781,-0.987549,-0.119141,0.00,0.00,0.00
1463,9.656489,14.793893,3.847328,-0.059570,-0.994141,-0.116699,0.00,0.00,0.00
1464,10.106870,13.396947,3.778626,-0.066162,-1.005371,-0.117432,0.00,0.00,0.00
1465,10.412214,12.061069,3.656489,-0.092285,-1.009033,-0.125977,0.00,0.00,0.00
1466,10.496183,10.404580,3.549618,-0.131348,-1.008789,-0.130127,0.00,0.00,0.00
1467,10.183206,8.854962,3.099237,-0.159180,-1.014893,-0.129395,0.00,0.00,0.00
1468,9.908397,6.687023,2.061069,-0.162109,-1.009521,-0.129150,0.00,0.00,0.00
1469,9.198473,4.244275,1.419847,-0.166260,-1.004395,-0.117676,0.00,0.00,0.00
1470,8.320611,2.679389,0.473282,-0.165527,-0.998291,-0.114014,0.00,0.00,0.00
1471,7.740458,1.671756,-0.335878,-0.172852,-0.988770,-0.111816,0.00,0.00,0.00
1472,7.404580,1.122137,-0.694656,-0.174316,-0.981445,-0.099854,0.00,0.00,0.00
1473,6.648855,0.152672,-0.931298,-0.167969,-0.964355,-0.080566,0.00,0.00,0.00
1474,5.900763,-0.496183,-1.343511,-0.162354,-0.945068,-0.063721,0.00,0.00,0.00
1475,5.770992,-0.893130,-1.648855,-0.156006,-0.922119,-0.054932,0.00,0.00,0.00
1476,5.374046,-0.916031,-1.854962,-0.150391,-0.917969,-0.044189,0.00,0.00,0.00
1477,4.503817,-0.801527,-2.473282,-0.135254,-0.907959,-0.034668,0.00,0.00,0.00
1478,2.931298,-1.282443,-3.213740,-0.112793,-0.893799,-0.039795,0.00,0.00,0.00
1479,0.938931,-2.320611,-3.465649,-0.091797,-0.879639,-0.087646,0.00,0.00,0.00
1480,-0.900763,-2.221374,-3.290076,-0.104492,-0.889160,-0.128662,0.00,0.00,0.00
1481,-1.366412,-1.099237,-2.717557,-0.120361,-0.902100,-0.145996,0.00,0.00,0.00
1482,-1.328244,0.824427,-1.740458,-0.132324,-0.917236,-0.131592,0.00,0.00,0.00
1483,-0.152672,2.908397,-1.427481,-0.130371,-0.944336,-0.099121,0.00,0.00,0.00
1484,1.244275,3.847328,-1.435115,-0.123047,-0.965332,-0.029053,0.00,0.00,0.00
1485,1.786260,3.526718,-2.030534,-0.089355,-0.971680,-0.008789,0.00,0.00,0.00
1486,1.908397,2.770992,-2.854962,-0.067627,-0.984863,0.006348,0.00,0.00,0.00
1487,2.328244,2.656489,-3.190840,-0.061279,-0.998291,0.020264,0.00,0.00,0.00
1488,3.251908,3.511450,-3.534351,-0.050293,-1.004395,0.030762,0.00,0.00,0.00
1489,3.900763,4.145038,-3.702290,-0.037842,-1.003906,0.035400,0.00,0.00,0.00
1490,4.366412,4.992366,-4.137405,-0.029785,-1.003418,0.037109,0.00,0.00,0.00
1491,4.862595,5.625954,-4.480916,-0.028564,-1.000488,0.050781,0.00,0.00,0.00
1492,4.465649,5.259542,-5.419847,-0.017334,-0.989990,0.064453,0.00,0.00,0.00
1493,3.900763,2.877863,-5.679389,0.004639,-0.987549,0.030029,0.00,0.00,0.00
1494,3.061069,0.221374,-5.236641,-0.003418,-0.989746,-0.009766,0.00,0.00,0.00
1495,2.778626,-1.732824,-5.000000,-0.025879,-0.999756,-0.032959,0.00,0.00,0.00
1496,2.709924,-3.511450,-4.969466,-0.084473,-1.010498,-0.062988,0.00,0.00,0.00
1497,2.091603,-5.412214,-5.160305,-0.119385,-1.018311,-0.077148,0.00,0.00,0.00
1498,1.511450,-6.664122,-5.595420,-0.140381,-1.027100,-0.086426,0.00,0.00,0.00
1499,0.732824,-8.290076,-6.099237,-0.151367,-1.040771,-0.093506,0.00,0.00,0.00
1500,0.366412,-9.633588,-6.442748,-0.163818,-1.047852,-0.115967,0.00,0.00,0.00
1501,-0.106870,-9.984733,-6.664122,-0.175293,-1.042480,-0.105957,0.00,0.00,0.00
1502,-0.603053,-8.763359,-7.160305,-0.158447,-1.034424,-0.113770,0.00,0.00,0.00
1503,-1.297710,-7.312977,-7.106870,-0.150391,-1.031006,-0.095215,0.00,0.00,0.00
1504,-1.702290,-5.083969,-6.511450,-0.129395,-1.020264,-0.072510,0.00,0.00,0.00
1505,-1.687023,-2.748092,-6.267176,-0.112793,-1.019287,-0.077148,0.00,0.00,0.00
1506,-1.610687,-0.786260,-5.068702,-0.081787,-1.004639,-0.067383,0.00,0.00,0.00
1507,-1.496183,0.419847,-4.351145,-0.065918,-0.992920,-0.067871,0.00,0.00,0.00
1508,-2.267176,1.183206,-4.137405,-0.033936,-0.960693,-0.079102,0.00,0.00,0.00
1509,-3.740458,1.389313,-3.679389,-0.031250,-0.935303,-0.113281,0.00,0.00,0.00
1510,-4.274809,2.213740,-2.129771,-0.060791,-0.930420,-0.145020,0.00,0.00,0.00
1511,-4.435115,3.770992,-0.175573,-0.060059,-0.929688,-0.163574,0.00,0.00,0.00
1512,-4.374046,4.473282,1.488550,-0.067383,-0.931641,-0.168701,0.00,0.00,0.00
1513,-4.458015,4.870229,3.328244,-0.065186,-0.934570,-0.152344,0.00,0.00,0.00
1514,-4.396947,5.893130,4.641221,-0.038574,-0.947510,-0.138672,0.00,0.00,0.00
1515,-4.175573,7.412214,4.931298,-0.022949,-0.946289,-0.125244,0.00,0.00,0.00
1516,-3.435115,8.633588,5.160305,-0.003662,-0.948975,-0.106934,0.00,0.00,0.00
1517,-3.137405,10.870229,5.129771,0.002930,-0.955322,-0.096436,0.00,0.00,0.00
