Packet number,Gyroscope X (deg/s),Gyroscope Y (deg/s),Gyroscope Z (deg/s),Accelerometer X (g),Accelerometer Y (g),Accelerometer Z (g),Magnetometer X (G),Magnetometer Y (G),Magnetometer Z (G)
1,-0.152672,-0.152672,-0.160305,-0.233643,-0.562988,0.769287,0.00,0.00,0.00
2,-0.015267,-0.129771,-0.198473,-0.237305,-0.565918,0.772705,0.00,0.00,0.00
3,-0.076336,-0.061069,-0.274809,-0.237549,-0.565430,0.785645,0.00,0.00,0.00
4,-0.030534,0.022901,-0.366412,-0.229736,-0.568115,0.773193,0.00,0.00,0.00
5,-0.175573,-0.015267,-0.229008,-0.238770,-0.564697,0.766113,0.00,0.00,0.00
6,0.015267,0.076336,-0.221374,-0.239502,-0.564209,0.771973,0.00,0.00,0.00
7,-0.221374,-0.198473,-0.099237,-0.231445,-0.567139,0.779541,0.00,0.00,0.00
8,-0.053435,0.083969,-0.152672,-0.237793,-0.562012,0.774658,0.00,0.00,0.00
9,-0.076336,-0.175573,-0.206107,-0.242676,-0.565918,0.761963,0.00,0.00,0.00
10,-0.137405,-0.145038,-0.213740,-0.230713,-0.563721,0.772461,0.00,0.00,0.00
11,-0.053435,-0.015267,-0.076336,-0.239258,-0.568115,0.768066,0.00,0.00,0.00
12,-0.206107,-0.236641,-0.236641,-0.232666,-0.568115,0.775391,0.00,0.00,0.00
13,-0.114504,0.015267,-0.145038,-0.236084,-0.566406,0.771484,0.00,0.00,0.00
14,-0.229008,0.022901,-0.076336,-0.237305,-0.566162,0.768555,0.00,0.00,0.00
15,-0.167939,-0.091603,-0.206107,-0.241211,-0.566895,0.765625,0.00,0.00,0.00
16,-0.137405,-0.015267,-0.229008,-0.228516,-0.562256,0.781982,0.00,0.00,0.00
17,0.030534,-0.099237,-0.175573,-0.234375,-0.564941,0.771240,0.00,0.00,0.00
18,0.053435,-0.030534,-0.213740,-0.241455,-0.567139,0.767822,0.00,0.00,0.00
19,-0.068702,0.000000,-0.282443,-0.239258,-0.564453,0.768066,0.00,0.00,0.00
20,-0.007634,-0.030534,-0.137405,-0.234619,-0.569336,0.770752,0.00,0.00,0.00
21,-0.083969,-0.251908,-0.282443,-0.236328,-0.565186,0.780029,0.00,0.00,0.00
22,0.099237,-0.038168,-0.389313,-0.236816,-0.566162,0.780518,0.00,0.00,0.00
23,0.045802,-0.190840,-0.221374,-0.231689,-0.570068,0.771484,0.00,0.00,0.00
24,0.015267,-0.022901,-0.206107,-0.239014,-0.564453,0.778076,0.00,0.00,0.00
25,-0.053435,-0.030534,-0.206107,-0.238281,-0.563232,0.771973,0.00,0.00,0.00
26,-0.160305,-0.114504,-0.290076,-0.242676,-0.566650,0.767090,0.00,0.00,0.00
27,-0.106870,0.061069,-0.229008,-0.233398,-0.565186,0.771240,0.00,0.00,0.00
28,0.053435,-0.068702,-0.129771,-0.238281,-0.566895,0.778564,0.00,0.00,0.00
29,-0.045802,-0.083969,-0.198473,-0.236816,-0.566895,0.771484,0.00,0.00,0.00
30,0.015267,-0.129771,-0.381679,-0.230225,-0.566895,0.775635,0.00,0.00,0.00
31,0.000000,-0.122137,-0.229008,-0.234375,-0.559814,0.767822,0.00,0.00,0.00
32,-0.099237,0.038168,-0.282443,-0.240234,-0.566650,0.770020,0.00,0.00,0.00
33,-0.061069,-0.076336,-0.320611,-0.234131,-0.567871,0.769775,0.00,0.00,0.00
34,-0.068702,-0.068702,-0.198473,-0.237549,-0.562256,0.772949,0.00,0.00,0.00
35,-0.198473,-0.038168,-0.137405,-0.241211,-0.569580,0.770020,0.00,0.00,0.00
36,-0.091603,0.015267,0.038168,-0.244141,-0.563965,0.771240,0.00,0.00,0.00
37,-0.229008,-0.198473,-0.183206,-0.236084,-0.568604,0.768066,0.00,0.00,0.00
38,-0.129771,-0.083969,-0.114504,-0.231445,-0.565430,0.768799,0.00,0.00,0.00
39,-0.076336,-0.122137,0.015267,-0.236328,-0.564453,0.771729,0.00,0.00,0.00
40,-0.175573,-0.061069,-0.290076,-0.240479,-0.565430,0.770264,0.00,0.00,0.00
41,-0.091603,0.045802,-0.114504,-0.233398,-0.565430,0.765869,0.00,0.00,0.00
42,-0.122137,-0.083969,-0.083969,-0.235596,-0.560791,0.773682,0.00,0.00,0.00
43,-0.091603,-0.152672,-0.396947,-0.235596,-0.561279,0.765137,0.00,0.00,0.00
44,-0.099237,-0.007634,-0.206107,-0.233887,-0.565674,0.769531,0.00,0.00,0.00
45,-0.129771,-0.099237,-0.183206,-0.236084,-0.568848,0.763916,0.00,0.00,0.00
46,-0.091603,0.007634,-0.152672,-0.237305,-0.562012,0.765625,0.00,0.00,0.00
47,-0.030534,-0.053435,-0.167939,-0.238525,-0.559814,0.767334,0.00,0.00,0.00
48,-0.053435,-0.030534,-0.229008,-0.234131,-0.567139,0.770508,0.00,0.00,0.00
49,-0.007634,-0.061069,-0.229008,-0.232178,-0.559814,0.766846,0.00,0.00,0.00
50,-0.114504,-0.068702,-0.229008,-0.236572,-0.567139,0.770264,0.00,0.00,0.00
51,-0.206107,-0.030534,-0.145038,-0.235840,-0.562256,0.766846,0.00,0.00,0.00
52,-0.099237,-0.007634,-0.114504,-0.233643,-0.561523,0.763672,0.00,0.00,0.00
53,-0.053435,-0.114504,-0.083969,-0.237549,-0.568359,0.772461,0.00,0.00,0.00
54,-0.221374,-0.114504,-0.251908,-0.233398,-0.566162,0.775879,0.00,0.00,0.00
55,-0.106870,-0.091603,-0.221374,-0.241455,-0.569824,0.767090,0.00,0.00,0.00
56,-0.122137,-0.152672,-0.221374,-0.230225,-0.564453,0.768066,0.00,0.00,0.00
57,0.038168,-0.053435,-0.206107,-0.231934,-0.562256,0.781006,0.00,0.00,0.00
58,-0.137405,-0.099237,-0.145038,-0.237793,-0.562012,0.760010,0.00,0.00,0.00
59,-0.183206,-0.068702,-0.206107,-0.230957,-0.567139,0.770996,0.00,0.00,0.00
60,-0.061069,-0.045802,-0.122137,-0.238281,-0.560791,0.769531,0.00,0.00,0.00
61,-0.099237,-0.030534,-0.053435,-0.240967,-0.567383,0.769531,0.00,0.00,0.00
62,-0.183206,-0.091603,-0.175573,-0.237061,-0.558594,0.771240,0.00,0.00,0.00
63,-0.099237,0.099237,-0.198473,-0.237549,-0.566895,0.766602,0.00,0.00,0.00
64,-0.053435,-0.015267,-0.221374,-0.238770,-0.564209,0.777100,0.00,0.00,0.00
65,-0.045802,0.015267,-0.122137,-0.238770,-0.567871,0.770752,0.00,0.00,0.00
66,-0.129771,0.038168,-0.061069,-0.237549,-0.561768,0.776367,0.00,0.00,0.00
67,-0.099237,-0.167939,-0.129771,-0.233887,-0.566895,0.767334,0.00,0.00,0.00
68,-0.198473,-0.015267,-0.190840,-0.234131,-0.563232,0.774170,0.00,0.00,0.00
69,-0.129771,0.022901,-0.251908,-0.238770,-0.566162,0.761230,0.00,0.00,0.00
70,-0.129771,0.015267,-0.213740,-0.236328,-0.565674,0.770752,0.00,0.00,0.00
71,-0.259542,0.000000,-0.061069,-0.233154,-0.566895,0.773926,0.00,0.00,0.00
72,-0.145038,-0.038168,-0.099237,-0.238525,-0.567627,0.774902,0.00,0.00,0.00
73,-0.076336,0.083969,-0.160305,-0.236572,-0.563721,0.765137,0.00,0.00,0.00
74,-0.122137,-0.099237,-0.229008,-0.237549,-0.569336,0.779541,0.00,0.00,0.00
75,-0.106870,0.022901,-0.175573,-0.232422,-0.564941,0.770752,0.00,0.00,0.00
76,-0.045802,0.061069,-0.175573,-0.235840,-0.564697,0.779053,0.00,0.00,0.00
77,-0.091603,0.045802,-0.106870,-0.230713,-0.563965,0.767090,0.00,0.00,0.00
78,-0.068702,0.053435,-0.312977,-0.242676,-0.568848,0.770020,0.00,0.00,0.00
79,-0.099237,-0.022901,0.000000,-0.230713,-0.562012,0.772705,0.00,0.00,0.00
80,0.061069,-0.030534,-0.045802,-0.236084,-0.562256,0.776855,0.00,0.00,0.00
81,-0.015267,-0.106870,-0.267176,-0.240479,-0.563965,0.768311,0.00,0.00,0.00
82,-0.068702,-0.076336,-0.198473,-0.243408,-0.563721,0.772705,0.00,0.00,0.00
83,-0.022901,-0.015267,-0.053435,-0.238037,-0.567871,0.769043,0.00,0.00,0.00
84,-0.160305,0.015267,-0.213740,-0.236084,-0.563965,0.764893,0.00,0.00,0.00
85,-0.030534,-0.061069,-0.152672,-0.237549,-0.567139,0.768311,0.00,0.00,0.00
86,-0.259542,-0.221374,-0.083969,-0.239014,-0.564209,0.767090,0.00,0.00,0.00
87,-0.099237,-0.114504,-0.175573,-0.235107,-0.562988,0.775146,0.00,0.00,0.00
88,0.053435,0.053435,-0.366412,-0.237793,-0.567139,0.770508,0.00,0.00,0.00
89,-0.045802,0.076336,-0.190840,-0.236572,-0.567627,0.761719,0.00,0.00,0.00
90,-0.114504,0.015267,-0.053435,-0.230957,-0.567627,0.777344,0.00,0.00,0.00
91,0.000000,-0.198473,-0.152672,-0.239258,-0.564453,0.774658,0.00,0.00,0.00
92,-0.114504,0.015267,-0.221374,-0.237305,-0.570068,0.763184,0.00,0.00,0.00
93,-0.045802,-0.030534,-0.312977,-0.232666,-0.564697,0.765137,0.00,0.00,0.00
94,0.015267,-0.175573,-0.221374,-0.235352,-0.566406,0.779297,0.00,0.00,0.00
95,0.083969,-0.022901,-0.290076,-0.235107,-0.560059,0.772217,0.00,0.00,0.00
96,-0.038168,0.061069,-0.190840,-0.234619,-0.566406,0.772949,0.00,0.00,0.00
97,-0.145038,-0.068702,-0.236641,-0.238770,-0.565186,0.778320,0.00,0.00,0.00
98,-0.061069,-0.045802,-0.122137,-0.232910,-0.562988,0.773926,0.00,0.00,0.00
99,-0.091603,-0.038168,-0.099237,-0.238281,-0.565918,0.771240,0.00,0.00,0.00
100,-0.152672,0.007634,-0.190840,-0.232422,-0.557861,0.781006,0.00,0.00,0.00
101,-0.129771,0.068702,-0.114504,-0.233643,-0.563965,0.770508,0.00,0.00,0.00
102,-0.045802,-0.038168,-0.160305,-0.239014,-0.559814,0.770264,0.00,0.00,0.00
103,-0.091603,-0.076336,-0.198473,-0.234863,-0.559814,0.774902,0.00,0.00,0.00
104,-0.007634,-0.167939,-0.053435,-0.235107,-0.565918,0.769043,0.00,0.00,0.00
105,-0.099237,-0.083969,-0.152672,-0.236572,-0.572021,0.781006,0.00,0.00,0.00
106,-0.175573,0.000000,-0.282443,-0.228027,-0.562988,0.767334,0.00,0.00,0.00
107,-0.206107,-0.152672,-0.175573,-0.238037,-0.563721,0.769043,0.00,0.00,0.00
108,0.030534,-0.038168,-0.175573,-0.236572,-0.560303,0.767822,0.00,0.00,0.00
109,-0.076336,-0.175573,-0.122137,-0.239014,-0.563965,0.768799,0.00,0.00,0.00
110,-0.007634,0.099237,-0.083969,-0.235352,-0.565674,0.762939,0.00,0.00,0.00
111,0.053435,-0.152672,-0.206107,-0.233398,-0.565918,0.774658,0.00,0.00,0.00
112,-0.114504,-0.091603,-0.366412,-0.236084,-0.566406,0.775146,0.00,0.00,0.00
113,-0.236641,0.129771,-0.114504,-0.231689,-0.558838,0.770020,0.00,0.00,0.00
114,0.022901,-0.022901,-0.297710,-0.231201,-0.568115,0.768311,0.00,0.00,0.00
115,-0.145038,-0.068702,-0.206107,-0.244385,-0.571289,0.760010,0.00,0.00,0.00
116,0.061069,-0.053435,-0.137405,-0.236572,-0.567871,0.767822,0.00,0.00,0.00
117,-0.175573,0.160305,-0.175573,-0.239746,-0.561523,0.768311,0.00,0.00,0.00
118,-0.190840,0.068702,-0.145038,-0.233398,-0.563477,0.767090,0.00,0.00,0.00
119,-0.091603,-0.053435,-0.244275,-0.235352,-0.568359,0.781738,0.00,0.00,0.00
120,-0.038168,-0.015267,-0.259542,-0.239746,-0.563232,0.779785,0.00,0.00,0.00
121,-0.190840,-0.091603,-0.129771,-0.239502,-0.562012,0.776367,0.00,0.00,0.00
122,0.022901,-0.099237,-0.152672,-0.244141,-0.561279,0.771973,0.00,0.00,0.00
123,-0.206107,0.000000,-0.122137,-0.235840,-0.564209,0.772217,0.00,0.00,0.00
124,-0.251908,-0.015267,-0.061069,-0.236328,-0.567139,0.772461,0.00,0.00,0.00
125,-0.106870,-0.015267,-0.244275,-0.238770,-0.567627,0.765137,0.00,0.00,0.00
126,-0.129771,0.106870,-0.068702,-0.239746,-0.569336,0.767578,0.00,0.00,0.00
127,-0.099237,-0.068702,-0.297710,-0.242920,-0.562988,0.772217,0.00,0.00,0.00
128,-0.160305,-0.206107,-0.160305,-0.239746,-0.568115,0.772461,0.00,0.00,0.00
129,-0.152672,-0.015267,-0.015267,-0.236328,-0.567383,0.776367,0.00,0.00,0.00
130,0.099237,0.015267,-0.160305,-0.239502,-0.567383,0.767334,0.00,0.00,0.00
131,0.030534,0.076336,-0.251908,-0.239990,-0.565918,0.767090,0.00,0.00,0.00
132,-0.053435,-0.083969,-0.229008,-0.241699,-0.565430,0.780029,0.00,0.00,0.00
133,-0.160305,0.000000,-0.091603,-0.239258,-0.562988,0.774170,0.00,0.00,0.00
134,0.007634,-0.083969,-0.229008,-0.235596,-0.566895,0.779053,0.00,0.00,0.00
135,-0.190840,-0.091603,-0.038168,-0.239014,-0.564697,0.772217,0.00,0.00,0.00
136,-0.068702,-0.167939,-0.366412,-0.237549,-0.565186,0.768311,0.00,0.00,0.00
137,0.000000,-0.099237,-0.099237,-0.235840,-0.568115,0.774414,0.00,0.00,0.00
138,0.106870,-0.061069,-0.267176,-0.238770,-0.563965,0.766357,0.00,0.00,0.00
139,-0.106870,-0.183206,-0.145038,-0.233398,-0.564941,0.771240,0.00,0.00,0.00
140,0.053435,-0.076336,-0.328244,-0.236328,-0.568115,0.770020,0.00,0.00,0.00
141,0.007634,-0.099237,-0.251908,-0.234619,-0.565430,0.773438,0.00,0.00,0.00
142,0.022901,-0.129771,-0.221374,-0.239502,-0.565186,0.767822,0.00,0.00,0.00
143,-0.106870,-0.053435,-0.114504,-0.230713,-0.565430,0.772217,0.00,0.00,0.00
144,-0.038168,-0.068702,-0.152672,-0.237549,-0.567383,0.774414,0.00,0.00,0.00
145,-0.106870,-0.045802,-0.206107,-0.235840,-0.572754,0.767334,0.00,0.00,0.00
146,-0.167939,-0.053435,-0.076336,-0.235596,-0.562988,0.772949,0.00,0.00,0.00
147,0.007634,-0.076336,-0.137405,-0.234863,-0.572754,0.778809,0.00,0.00,0.00
148,0.061069,-0.129771,-0.175573,-0.241699,-0.570068,0.771973,0.00,0.00,0.00
149,-0.137405,-0.167939,-0.221374,-0.236084,-0.568604,0.775391,0.00,0.00,0.00
150,0.137405,-0.198473,-0.137405,-0.238281,-0.564209,0.773682,0.00,0.00,0.00
151,-0.175573,-0.137405,-0.358779,-0.237305,-0.559814,0.774902,0.00,0.00,0.00
152,-0.022901,-0.312977,-0.114504,-0.232910,-0.564697,0.764893,0.00,0.00,0.00
153,0.068702,-0.152672,-0.175573,-0.236084,-0.566895,0.759521,0.00,0.00,0.00
154,0.007634,-0.022901,-0.076336,-0.233154,-0.561279,0.777344,0.00,0.00,0.00
155,0.022901,-0.045802,-0.259542,-0.235840,-0.561523,0.769043,0.00,0.00,0.00
156,-0.030534,-0.061069,-0.190840,-0.236816,-0.562500,0.770508,0.00,0.00,0.00
157,-0.152672,-0.083969,-0.236641,-0.236084,-0.562988,0.770264,0.00,0.00,0.00
158,-0.053435,0.000000,-0.129771,-0.237061,-0.560303,0.778809,0.00,0.00,0.00
159,0.030534,-0.068702,-0.061069,-0.238037,-0.564941,0.771240,0.00,0.00,0.00
160,0.061069,-0.114504,-0.267176,-0.239502,-0.561768,0.778320,0.00,0.00,0.00
161,-0.030534,0.145038,-0.091603,-0.235352,-0.564941,0.773682,0.00,0.00,0.00
162,-0.137405,-0.053435,-0.015267,-0.233643,-0.568115,0.763428,0.00,0.00,0.00
163,-0.083969,-0.022901,-0.145038,-0.234131,-0.561035,0.774902,0.00,0.00,0.00
164,-0.091603,-0.045802,-0.083969,-0.236816,-0.565918,0.768311,0.00,0.00,0.00
165,0.038168,-0.038168,-0.290076,-0.235596,-0.567383,0.775879,0.00,0.00,0.00
166,-0.145038,-0.122137,-0.221374,-0.239746,-0.562988,0.774658,0.00,0.00,0.00
167,-0.045802,0.015267,-0.213740,-0.235596,-0.561768,0.772705,0.00,0.00,0.00
168,-0.129771,0.000000,-0.198473,-0.240234,-0.566895,0.767578,0.00,0.00,0.00
169,-0.106870,-0.122137,-0.328244,-0.242920,-0.562012,0.767578,0.00,0.00,0.00
170,-0.190840,-0.213740,-0.183206,-0.236328,-0.564697,0.775146,0.00,0.00,0.00
171,-0.068702,-0.007634,-0.160305,-0.230225,-0.568604,0.763916,0.00,0.00,0.00
172,-0.198473,-0.183206,-0.183206,-0.237793,-0.567871,0.763672,0.00,0.00,0.00
173,0.053435,0.007634,-0.274809,-0.239990,-0.566162,0.779053,0.00,0.00,0.00
174,0.015267,0.038168,0.015267,-0.236084,-0.561279,0.768555,0.00,0.00,0.00
175,0.000000,-0.045802,-0.106870,-0.237549,-0.575439,0.767334,0.00,0.00,0.00
176,0.015267,-0.007634,-0.274809,-0.234619,-0.567627,0.778320,0.00,0.00,0.00
177,-0.099237,0.022901,-0.152672,-0.239502,-0.566162,0.775146,0.00,0.00,0.00
178,0.045802,-0.045802,-0.160305,-0.235352,-0.565918,0.773682,0.00,0.00,0.00
179,-0.114504,-0.175573,-0.343511,-0.233398,-0.568848,0.765137,0.00,0.00,0.00
180,-0.099237,0.083969,-0.259542,-0.230713,-0.562500,0.770264,0.00,0.00,0.00
181,-0.053435,-0.137405,-0.236641,-0.238037,-0.566162,0.761230,0.00,0.00,0.00
182,0.045802,-0.053435,-0.282443,-0.235107,-0.566650,0.775635,0.00,0.00,0.00
183,-0.114504,-0.106870,-0.198473,-0.229004,-0.563721,0.767090,0.00,0.00,0.00
184,-0.122137,0.076336,-0.244275,-0.229980,-0.566895,0.775879,0.00,0.00,0.00
185,-0.045802,-0.122137,-0.099237,-0.235840,-0.565918,0.771729,0.00,0.00,0.00
186,-0.022901,0.007634,-0.267176,-0.237549,-0.564697,0.768555,0.00,0.00,0.00
187,-0.137405,0.175573,-0.099237,-0.236084,-0.565186,0.766602,0.00,0.00,0.00
188,-0.022901,-0.007634,-0.076336,-0.235840,-0.567383,0.775391,0.00,0.00,0.00
189,-0.183206,0.038168,-0.083969,-0.235840,-0.568115,0.757812,0.00,0.00,0.00
190,-0.061069,0.045802,-0.175573,-0.241455,-0.566406,0.768555,0.00,0.00,0.00
191,0.007634,0.083969,-0.160305,-0.234375,-0.565430,0.767090,0.00,0.00,0.00
192,-0.091603,-0.053435,-0.038168,-0.238037,-0.569824,0.772461,0.00,0.00,0.00
193,-0.061069,0.045802,-0.229008,-0.229248,-0.567139,0.775391,0.00,0.00,0.00
194,-0.045802,0.053435,-0.213740,-0.233887,-0.567383,0.769531,0.00,0.00,0.00
195,-0.061069,0.061069,-0.099237,-0.240723,-0.565918,0.768555,0.00,0.00,0.00
196,-0.099237,0.022901,-0.114504,-0.237305,-0.567627,0.759033,0.00,0.00,0.00
197,-0.206107,0.091603,-0.175573,-0.232666,-0.566650,0.766357,0.00,0.00,0.00
198,0.015267,-0.106870,-0.129771,-0.233643,-0.572266,0.779053,0.00,0.00,0.00
199,-0.083969,0.022901,-0.137405,-0.240234,-0.565430,0.773926,0.00,0.00,0.00
200,-0.045802,-0.145038,-0.083969,-0.235840,-0.561279,0.774414,0.00,0.00,0.00
201,-0.175573,0.007634,-0.083969,-0.238037,-0.560791,0.778320,0.00,0.00,0.00
202,0.000000,-0.099237,-0.114504,-0.232666,-0.564941,0.779541,0.00,0.00,0.00
203,-0.076336,0.022901,-0.145038,-0.228027,-0.564209,0.773193,0.00,0.00,0.00
204,-0.267176,-0.083969,0.015267,-0.238770,-0.562012,0.770996,0.00,0.00,0.00
205,-0.175573,-0.038168,-0.068702,-0.239258,-0.571777,0.770752,0.00,0.00,0.00
206,0.022901,-0.038168,-0.175573,-0.232910,-0.562256,0.768799,0.00,0.00,0.00
207,0.038168,-0.045802,-0.145038,-0.239258,-0.569092,0.770020,0.00,0.00,0.00
208,-0.030534,-0.061069,-0.229008,-0.235352,-0.567139,0.763428,0.00,0.00,0.00
209,0.106870,-0.236641,-0.290076,-0.232422,-0.560547,0.774170,0.00,0.00,0.00
210,0.167939,-0.137405,-0.221374,-0.229492,-0.566895,0.778564,0.00,0.00,0.00
211,-0.022901,-0.198473,-0.183206,-0.238037,-0.567383,0.778320,0.00,0.00,0.00
212,0.083969,-0.076336,-0.328244,-0.236572,-0.562012,0.768066,0.00,0.00,0.00
213,-0.022901,-0.167939,-0.389313,-0.237549,-0.570557,0.776611,0.00,0.00,0.00
214,-0.091603,-0.167939,-0.312977,-0.234863,-0.566895,0.764893,0.00,0.00,0.00
215,-0.152672,-0.106870,-0.206107,-0.235107,-0.566162,0.769531,0.00,0.00,0.00
216,-0.099237,-0.038168,-0.312977,-0.241455,-0.562500,0.770020,0.00,0.00,0.00
217,0.061069,-0.282443,-0.312977,-0.232666,-0.570068,0.768311,0.00,0.00,0.00
218,0.000000,-0.015267,-0.259542,-0.232910,-0.569824,0.773193,0.00,0.00,0.00
219,-0.053435,-0.236641,-0.122137,-0.240967,-0.566895,0.779053,0.00,0.00,0.00
220,0.015267,-0.198473,-0.351145,-0.236572,-0.564209,0.772217,0.00,0.00,0.00
221,0.076336,-0.030534,-0.183206,-0.243408,-0.568848,0.772949,0.00,0.00,0.00
222,-0.122137,-0.045802,-0.297710,-0.235352,-0.564209,0.766113,0.00,0.00,0.00
223,0.022901,-0.030534,-0.206107,-0.239014,-0.569336,0.775391,0.00,0.00,0.00
224,0.053435,-0.122137,-0.358779,-0.240723,-0.567139,0.783447,0.00,0.00,0.00
225,-0.022901,-0.076336,-0.167939,-0.231445,-0.564209,0.771973,0.00,0.00,0.00
226,0.015267,-0.099237,-0.335878,-0.235840,-0.567871,0.770264,0.00,0.00,0.00
227,0.030534,-0.251908,-0.435115,-0.238770,-0.562500,0.765625,0.00,0.00,0.00
228,-0.213740,-0.061069,-0.198473,-0.234131,-0.574219,0.768066,0.00,0.00,0.00
229,-0.022901,-0.221374,-0.389313,-0.238770,-0.571777,0.774658,0.00,0.00,0.00
230,-0.122137,-0.267176,-0.374046,-0.235840,-0.568604,0.784424,0.00,0.00,0.00
231,0.137405,-0.267176,-0.396947,-0.238770,-0.572998,0.776123,0.00,0.00,0.00
232,0.091603,-0.236641,-0.297710,-0.236328,-0.570068,0.769043,0.00,0.00,0.00
233,-0.030534,-0.221374,-0.343511,-0.238037,-0.565186,0.769287,0.00,0.00,0.00
234,-0.015267,-0.183206,-0.450382,-0.240967,-0.558838,0.770752,0.00,0.00,0.00
235,-0.068702,-0.183206,-0.351145,-0.234131,-0.563965,0.774658,0.00,0.00,0.00
236,-0.038168,-0.129771,-0.229008,-0.234863,-0.566162,0.769043,0.00,0.00,0.00
237,0.053435,-0.206107,-0.328244,-0.239746,-0.571289,0.769287,0.00,0.00,0.00
238,-0.076336,-0.198473,-0.312977,-0.231934,-0.566895,0.774902,0.00,0.00,0.00
239,-0.083969,-0.091603,-0.244275,-0.235840,-0.567871,0.777832,0.00,0.00,0.00
240,-0.038168,-0.236641,-0.213740,-0.234375,-0.565674,0.770264,0.00,0.00,0.00
241,-0.122137,-0.167939,-0.312977,-0.236084,-0.570312,0.765381,0.00,0.00,0.00
242,-0.038168,-0.145038,-0.267176,-0.228516,-0.562988,0.763916,0.00,0.00,0.00
243,-0.106870,-0.145038,-0.251908,-0.230469,-0.563477,0.773926,0.00,0.00,0.00
244,-0.106870,-0.083969,-0.274809,-0.237305,-0.563477,0.767578,0.00,0.00,0.00
245,-0.068702,-0.038168,-0.290076,-0.234131,-0.568359,0.771973,0.00,0.00,0.00
246,0.282443,0.122137,-0.244275,-0.219971,-0.569336,0.769043,0.00,0.00,0.00
247,-0.175573,-0.206107,-0.274809,-0.238037,-0.563232,0.770508,0.00,0.00,0.00
248,-0.083969,-0.190840,-0.244275,-0.249268,-0.562500,0.772705,0.00,0.00,0.00
249,-0.129771,-0.167939,-0.328244,-0.232910,-0.565186,0.766602,0.00,0.00,0.00
250,-0.091603,-0.312977,-0.274809,-0.231445,-0.564209,0.768311,0.00,0.00,0.00
251,-0.022901,-0.167939,-0.190840,-0.238037,-0.561279,0.770264,0.00,0.00,0.00
252,-0.175573,-0.122137,-0.251908,-0.236572,-0.563965,0.770508,0.00,0.00,0.00
253,0.015267,-0.114504,-0.297710,-0.232910,-0.563721,0.766113,0.00,0.00,0.00
254,-0.145038,-0.221374,-0.412214,-0.233887,-0.567139,0.768311,0.00,0.00,0.00
255,-0.099237,-0.114504,-0.381679,-0.235107,-0.563965,0.769287,0.00,0.00,0.00
256,-0.244275,-0.083969,-0.297710,-0.229980,-0.566162,0.766602,0.00,0.00,0.00
257,-0.076336,0.022901,-0.091603,-0.232422,-0.565186,0.771240,0.00,0.00,0.00
258,-0.083969,-0.045802,-0.129771,-0.235107,-0.568115,0.771973,0.00,0.00,0.00
259,-0.061069,-0.038168,-0.290076,-0.239502,-0.565430,0.777588,0.00,0.00,0.00
260,-0.229008,-0.381679,-0.282443,-0.233643,-0.566406,0.775146,0.00,0.00,0.00
261,-0.183206,-0.045802,-0.236641,-0.230225,-0.563232,0.772949,0.00,0.00,0.00
262,-0.083969,-0.068702,-0.274809,-0.234619,-0.560791,0.769531,0.00,0.00,0.00
263,-0.129771,-0.068702,-0.221374,-0.234375,-0.561035,0.773926,0.00,0.00,0.00
264,-0.045802,0.083969,-0.022901,-0.233643,-0.568359,0.769043,0.00,0.00,0.00
265,-0.122137,0.076336,-0.206107,-0.232178,-0.564209,0.774902,0.00,0.00,0.00
266,-0.099237,0.206107,-0.045802,-0.231445,-0.568604,0.778320,0.00,0.00,0.00
267,-0.076336,-0.022901,-0.183206,-0.240234,-0.564941,0.767822,0.00,0.00,0.00
268,-0.366412,-0.061069,-0.167939,-0.234619,-0.563232,0.768799,0.00,0.00,0.00
269,-0.122137,-0.045802,-0.206107,-0.236328,-0.562744,0.774170,0.00,0.00,0.00
270,-0.190840,0.167939,-0.083969,-0.230469,-0.564941,0.773193,0.00,0.00,0.00
271,-0.145038,-0.083969,-0.175573,-0.232910,-0.569580,0.767578,0.00,0.00,0.00
272,-0.221374,-0.015267,-0.206107,-0.233398,-0.565674,0.772949,0.00,0.00,0.00
273,-0.274809,0.022901,-0.259542,-0.232666,-0.562012,0.773438,0.00,0.00,0.00
274,0.000000,-0.076336,-0.206107,-0.238525,-0.564209,0.778076,0.00,0.00,0.00
275,-0.282443,0.007634,-0.038168,-0.246338,-0.562744,0.778564,0.00,0.00,0.00
276,-0.175573,-0.183206,-0.236641,-0.240234,-0.566406,0.771973,0.00,0.00,0.00
277,-0.122137,-0.015267,-0.229008,-0.231445,-0.562988,0.779541,0.00,0.00,0.00
278,-0.129771,-0.022901,-0.091603,-0.234619,-0.566406,0.772461,0.00,0.00,0.00
279,-0.198473,0.007634,-0.229008,-0.232910,-0.571289,0.776611,0.00,0.00,0.00
280,-0.229008,-0.022901,-0.068702,-0.233154,-0.560791,0.775879,0.00,0.00,0.00
281,-0.068702,0.145038,-0.198473,-0.241943,-0.560303,0.769775,0.00,0.00,0.00
282,-0.259542,0.251908,-0.175573,-0.230957,-0.568115,0.770996,0.00,0.00,0.00
283,-0.152672,0.000000,-0.030534,-0.237793,-0.561523,0.766357,0.00,0.00,0.00
284,-0.129771,-0.007634,-0.038168,-0.239502,-0.564209,0.763184,0.00,0.00,0.00
285,-0.129771,-0.068702,-0.190840,-0.236328,-0.562988,0.771240,0.00,0.00,0.00
286,-0.122137,-0.137405,-0.068702,-0.235352,-0.565674,0.762451,0.00,0.00,0.00
287,-0.145038,-0.106870,-0.106870,-0.234375,-0.569092,0.765137,0.00,0.00,0.00
288,-0.099237,0.068702,-0.259542,-0.238525,-0.567139,0.780029,0.00,0.00,0.00
289,-0.053435,-0.137405,-0.305344,-0.236816,-0.561279,0.776611,0.00,0.00,0.00
290,-0.030534,-0.175573,-0.106870,-0.234131,-0.567871,0.770752,0.00,0.00,0.00
291,0.015267,-0.099237,-0.290076,-0.227295,-0.564697,0.778564,0.00,0.00,0.00
292,-0.045802,-0.076336,-0.297710,-0.243408,-0.574463,0.770752,0.00,0.00,0.00
293,-0.145038,0.053435,-0.007634,-0.233398,-0.565674,0.776611,0.00,0.00,0.00
294,-0.030534,0.068702,-0.229008,-0.235352,-0.565430,0.765381,0.00,0.00,0.00
295,-0.175573,0.022901,-0.152672,-0.237549,-0.569580,0.770264,0.00,0.00,0.00
296,-0.007634,0.129771,-0.183206,-0.234375,-0.561523,0.776123,0.00,0.00,0.00
297,-0.145038,0.045802,-0.160305,-0.240479,-0.565674,0.769531,0.00,0.00,0.00
298,-0.183206,0.038168,-0.206107,-0.242920,-0.566406,0.771973,0.00,0.00,0.00
299,-0.030534,0.061069,-0.274809,-0.239258,-0.571533,0.781738,0.00,0.00,0.00
300,-0.167939,-0.038168,-0.137405,-0.233154,-0.564941,0.781006,0.00,0.00,0.00
301,-0.022901,-0.175573,-0.259542,-0.226318,-0.569336,0.778076,0.00,0.00,0.00
302,-0.137405,0.290076,0.022901,-0.236328,-0.564697,0.769043,0.00,0.00,0.00
303,-0.229008,0.221374,-0.122137,-0.236572,-0.564453,0.767578,0.00,0.00,0.00
304,-0.122137,0.236641,0.068702,-0.213867,-0.571045,0.767090,0.00,0.00,0.00
305,-0.465649,0.343511,0.106870,-0.237061,-0.564209,0.785156,0.00,0.00,0.00
306,-0.442748,0.099237,-0.129771,-0.228027,-0.567627,0.767334,0.00,0.00,0.00
307,-0.061069,-0.038168,-0.099237,-0.261475,-0.568359,0.764893,0.00,0.00,0.00
308,0.030534,-0.251908,-0.320611,-0.238770,-0.566895,0.764404,0.00,0.00,0.00
309,-0.030534,0.007634,-0.259542,-0.226318,-0.569580,0.778076,0.00,0.00,0.00
310,-0.083969,-0.053435,-0.160305,-0.244629,-0.568848,0.773682,0.00,0.00,0.00
311,-0.206107,-0.038168,-0.030534,-0.233643,-0.568604,0.776123,0.00,0.00,0.00
312,-0.129771,-0.030534,-0.015267,-0.231445,-0.563721,0.774902,0.00,0.00,0.00
313,-0.198473,0.068702,0.030534,-0.234375,-0.571533,0.772461,0.00,0.00,0.00
314,-0.152672,-0.160305,0.068702,-0.235107,-0.569092,0.772705,0.00,0.00,0.00
315,-0.137405,-0.045802,-0.198473,-0.238770,-0.564941,0.772949,0.00,0.00,0.00
316,-0.366412,0.053435,-0.045802,-0.226807,-0.566162,0.774170,0.00,0.00,0.00
317,-0.366412,0.129771,0.061069,-0.228271,-0.564209,0.778320,0.00,0.00,0.00
318,-0.229008,0.137405,-0.053435,-0.236816,-0.564209,0.759766,0.00,0.00,0.00
319,-0.152672,0.206107,-0.183206,-0.243652,-0.565674,0.773682,0.00,0.00,0.00
320,-0.160305,0.122137,-0.106870,-0.231201,-0.565186,0.771484,0.00,0.00,0.00
321,-0.091603,0.251908,-0.175573,-0.235107,-0.566406,0.771240,0.00,0.00,0.00
322,-0.259542,0.122137,-0.152672,-0.241943,-0.565430,0.772705,0.00,0.00,0.00
323,-0.251908,0.015267,0.022901,-0.239746,-0.564697,0.771973,0.00,0.00,0.00
324,-0.267176,0.030534,-0.137405,-0.239746,-0.563965,0.764893,0.00,0.00,0.00
325,-0.137405,0.076336,-0.045802,-0.238525,-0.567871,0.764893,0.00,0.00,0.00
326,-0.068702,0.053435,-0.030534,-0.233154,-0.569580,0.772217,0.00,0.00,0.00
327,-0.129771,-0.076336,-0.106870,-0.233154,-0.565186,0.767334,0.00,0.00,0.00
328,-0.183206,-0.068702,-0.076336,-0.232666,-0.564941,0.777832,0.00,0.00,0.00
329,-0.083969,-0.106870,-0.022901,-0.234131,-0.559082,0.779297,0.00,0.00,0.00
330,-0.053435,-0.022901,-0.251908,-0.234375,-0.563721,0.772217,0.00,0.00,0.00
331,-0.290076,0.053435,-0.282443,-0.239502,-0.564209,0.775879,0.00,0.00,0.00
332,-0.236641,0.061069,-0.083969,-0.239746,-0.562256,0.775879,0.00,0.00,0.00
333,-0.053435,0.000000,-0.160305,-0.239258,-0.567627,0.775879,0.00,0.00,0.00
334,-0.053435,0.000000,-0.114504,-0.233154,-0.563965,0.765869,0.00,0.00,0.00
335,-0.030534,-0.015267,-0.267176,-0.238525,-0.565918,0.775391,0.00,0.00,0.00
336,-0.106870,-0.129771,-0.091603,-0.239014,-0.562744,0.766357,0.00,0.00,0.00
337,-0.068702,-0.183206,-0.114504,-0.236572,-0.567139,0.774414,0.00,0.00,0.00
338,-0.045802,-0.236641,0.068702,-0.232910,-0.563965,0.771729,0.00,0.00,0.00
339,-0.068702,0.053435,-0.267176,-0.237305,-0.563965,0.777100,0.00,0.00,0.00
340,-0.068702,-0.114504,-0.137405,-0.234375,-0.563232,0.771484,0.00,0.00,0.00
341,-0.160305,0.137405,0.106870,-0.239746,-0.564941,0.776855,0.00,0.00,0.00
342,-0.091603,0.000000,-0.183206,-0.238525,-0.567871,0.776123,0.00,0.00,0.00
343,0.045802,-0.015267,-0.106870,-0.235107,-0.563232,0.770752,0.00,0.00,0.00
344,-0.030534,-0.183206,-0.045802,-0.229248,-0.566895,0.768799,0.00,0.00,0.00
345,-0.015267,0.030534,0.015267,-0.235352,-0.559814,0.758789,0.00,0.00,0.00
346,0.076336,-0.053435,-0.282443,-0.228516,-0.564941,0.763672,0.00,0.00,0.00
347,0.038168,-0.053435,-0.229008,-0.236328,-0.571045,0.768311,0.00,0.00,0.00
348,-0.076336,-0.038168,-0.229008,-0.237061,-0.564453,0.766602,0.00,0.00,0.00
349,-0.076336,-0.061069,-0.236641,-0.238525,-0.565918,0.765625,0.00,0.00,0.00
350,0.099237,-0.091603,-0.106870,-0.235840,-0.563965,0.775391,0.00,0.00,0.00
351,0.129771,-0.076336,-0.145038,-0.232910,-0.569580,0.774902,0.00,0.00,0.00
352,-0.114504,-0.076336,-0.183206,-0.232422,-0.568115,0.773193,0.00,0.00,0.00
353,0.106870,0.007634,-0.068702,-0.229004,-0.564453,0.769287,0.00,0.00,0.00
354,0.038168,0.122137,0.022901,-0.229980,-0.562012,0.772461,0.00,0.00,0.00
355,0.000000,0.106870,0.114504,-0.229248,-0.565674,0.771729,0.00,0.00,0.00
356,-0.015267,0.236641,0.045802,-0.234863,-0.570557,0.767334,0.00,0.00,0.00
357,0.015267,0.335878,0.045802,-0.237305,-0.564209,0.770996,0.00,0.00,0.00
358,0.251908,-0.129771,0.000000,-0.256836,-0.563721,0.760986,0.00,0.00,0.00
359,0.076336,0.190840,-0.045802,-0.221191,-0.564209,0.775879,0.00,0.00,0.00
360,-0.083969,0.351145,0.206107,-0.240967,-0.567139,0.769043,0.00,0.00,0.00
361,0.045802,-0.015267,0.183206,-0.251709,-0.568604,0.765381,0.00,0.00,0.00
362,-0.053435,-0.083969,-0.106870,-0.241455,-0.564697,0.774902,0.00,0.00,0.00
363,0.076336,0.007634,-0.038168,-0.230225,-0.565674,0.771240,0.00,0.00,0.00
364,0.106870,0.091603,-0.053435,-0.234131,-0.564941,0.760010,0.00,0.00,0.00
365,0.167939,-0.022901,-0.274809,-0.250000,-0.564453,0.764893,0.00,0.00,0.00
366,0.167939,-0.282443,-0.480916,-0.225342,-0.567627,0.761719,0.00,0.00,0.00
367,-0.167939,-0.099237,-0.061069,-0.236084,-0.575195,0.793457,0.00,0.00,0.00
368,0.175573,-0.091603,-0.030534,-0.238770,-0.557617,0.771484,0.00,0.00,0.00
369,0.114504,0.076336,-0.068702,-0.225342,-0.567139,0.785400,0.00,0.00,0.00
370,-0.038168,0.114504,0.152672,-0.225830,-0.565918,0.778320,0.00,0.00,0.00
371,-0.068702,0.580153,0.229008,-0.236816,-0.558105,0.780762,0.00,0.00,0.00
372,-0.030534,0.282443,-0.068702,-0.235352,-0.562988,0.789307,0.00,0.00,0.00
373,-0.335878,1.030534,0.717557,-0.220459,-0.565674,0.768799,0.00,0.00,0.00
374,-0.450382,1.725191,1.160305,-0.208252,-0.563232,0.772949,0.00,0.00,0.00
375,-0.893130,1.801527,1.083969,-0.215332,-0.559326,0.781494,0.00,0.00,0.00
376,-0.923664,1.274809,0.931298,-0.263916,-0.573730,0.761230,0.00,0.00,0.00
377,-0.496183,1.167939,0.595420,-0.289551,-0.559570,0.767822,0.00,0.00,0.00
378,-0.351145,0.641221,0.343511,-0.234375,-0.569092,0.764893,0.00,0.00,0.00
379,-0.160305,0.671756,0.305344,-0.228516,-0.563477,0.768311,0.00,0.00,0.00
380,-0.229008,0.358779,0.145038,-0.255371,-0.563232,0.773193,0.00,0.00,0.00
381,-0.152672,0.320611,0.175573,-0.241211,-0.568115,0.769287,0.00,0.00,0.00
382,-0.068702,0.083969,0.167939,-0.236816,-0.566406,0.763672,0.00,0.00,0.00
383,0.083969,0.091603,0.183206,-0.241699,-0.563477,0.770752,0.00,0.00,0.00
384,0.099237,0.282443,0.030534,-0.224854,-0.565186,0.786621,0.00,0.00,0.00
385,-0.083969,0.541985,0.709924,-0.231445,-0.567383,0.778564,0.00,0.00,0.00
386,0.061069,0.549618,0.625954,-0.230469,-0.564453,0.771484,0.00,0.00,0.00
387,-0.305344,0.435115,0.267176,-0.264648,-0.555664,0.771484,0.00,0.00,0.00
388,-0.206107,0.160305,-0.229008,-0.250244,-0.569580,0.761963,0.00,0.00,0.00
389,0.007634,0.488550,0.320611,-0.224854,-0.567627,0.763672,0.00,0.00,0.00
390,-0.259542,0.427481,0.236641,-0.238037,-0.562012,0.775635,0.00,0.00,0.00
391,-0.183206,0.351145,0.320611,-0.246338,-0.569336,0.768066,0.00,0.00,0.00
392,0.030534,0.129771,0.045802,-0.250000,-0.563721,0.762207,0.00,0.00,0.00
393,0.152672,-0.007634,-0.091603,-0.240967,-0.565430,0.772217,0.00,0.00,0.00
394,0.366412,-0.175573,-0.251908,-0.239014,-0.564941,0.770996,0.00,0.00,0.00
395,0.305344,-0.442748,-0.480916,-0.247559,-0.561768,0.761963,0.00,0.00,0.00
396,0.503817,-0.580153,-0.435115,-0.239014,-0.559570,0.770020,0.00,0.00,0.00
397,0.580153,-0.442748,-0.580153,-0.246338,-0.560547,0.791016,0.00,0.00,0.00
398,0.824427,-0.580153,-0.351145,-0.234619,-0.564209,0.753418,0.00,0.00,0.00
399,0.473282,-0.488550,-0.335878,-0.237061,-0.561279,0.771240,0.00,0.00,0.00
400,0.541985,-0.251908,-0.190840,-0.252441,-0.554688,0.771973,0.00,0.00,0.00
401,0.503817,-0.549618,-0.320611,-0.244141,-0.564697,0.754150,0.00,0.00,0.00
402,0.427481,-0.458015,-0.595420,-0.259033,-0.573242,0.792725,0.00,0.00,0.00
403,0.343511,-0.916031,-0.610687,-0.232666,-0.559082,0.770752,0.00,0.00,0.00
404,0.809160,-0.381679,-0.274809,-0.235352,-0.567627,0.770996,0.00,0.00,0.00
405,0.473282,-0.801527,-0.503817,-0.235107,-0.560059,0.768799,0.00,0.00,0.00
406,0.816794,-0.885496,-0.633588,-0.250732,-0.569336,0.762939,0.00,0.00,0.00
407,0.587786,-1.167939,-0.816794,-0.244873,-0.564453,0.776123,0.00,0.00,0.00
408,0.732824,-0.648855,-0.496183,-0.227051,-0.566406,0.773682,0.00,0.00,0.00
409,0.641221,-0.893130,-0.610687,-0.241943,-0.561768,0.776367,0.00,0.00,0.00
410,0.671756,-0.877863,-0.656489,-0.248291,-0.561768,0.766602,0.00,0.00,0.00
411,0.824427,-0.908397,-0.770992,-0.250000,-0.563965,0.775635,0.00,0.00,0.00
412,0.549618,-0.969466,-0.786260,-0.243408,-0.568848,0.764404,0.00,0.00,0.00
413,0.854962,-1.099237,-0.854962,-0.241455,-0.566162,0.769043,0.00,0.00,0.00
414,0.694656,-1.381679,-1.022901,-0.247070,-0.560059,0.774902,0.00,0.00,0.00
415,0.847328,-1.328244,-1.045802,-0.238770,-0.569580,0.775635,0.00,0.00,0.00
416,0.877863,-1.038168,-0.900763,-0.217529,-0.566650,0.782227,0.00,0.00,0.00
417,0.671756,-1.198473,-1.030534,-0.233154,-0.561768,0.779053,0.00,0.00,0.00
418,0.732824,-1.389313,-1.038168,-0.243408,-0.562012,0.781006,0.00,0.00,0.00
419,0.717557,-1.404580,-1.122137,-0.235107,-0.559082,0.775391,0.00,0.00,0.00
420,0.572519,-1.305344,-1.007634,-0.224609,-0.563232,0.760010,0.00,0.00,0.00
421,0.786260,-1.038168,-0.717557,-0.234619,-0.567383,0.776855,0.00,0.00,0.00
422,0.412214,-1.274809,-0.946565,-0.235840,-0.562744,0.767334,0.00,0.00,0.00
423,0.786260,-1.320611,-1.137405,-0.246582,-0.561035,0.765869,0.00,0.00,0.00
424,0.328244,-1.419847,-0.954198,-0.235352,-0.567383,0.770508,0.00,0.00,0.00
425,0.717557,-0.793893,-0.755725,-0.218018,-0.559570,0.772461,0.00,0.00,0.00
426,0.343511,-0.854962,-0.816794,-0.230225,-0.562256,0.777832,0.00,0.00,0.00
427,0.236641,-0.770992,-0.664122,-0.238281,-0.564697,0.769287,0.00,0.00,0.00
428,0.358779,-0.900763,-0.931298,-0.240479,-0.563965,0.780273,0.00,0.00,0.00
429,0.259542,-0.954198,-0.564885,-0.224609,-0.559570,0.768311,0.00,0.00,0.00
430,0.450382,-0.702290,-0.656489,-0.225830,-0.566162,0.786377,0.00,0.00,0.00
431,0.183206,-0.633588,-0.572519,-0.240234,-0.558594,0.769287,0.00,0.00,0.00
432,0.343511,-0.564885,-0.633588,-0.253418,-0.561523,0.773438,0.00,0.00,0.00
433,0.068702,-1.114504,-0.870229,-0.242676,-0.569336,0.778076,0.00,0.00,0.00
434,0.351145,-0.587786,-0.687023,-0.232910,-0.562256,0.767578,0.00,0.00,0.00
435,-0.167939,-0.709924,-0.648855,-0.229492,-0.562500,0.787842,0.00,0.00,0.00
436,-0.175573,-0.122137,-0.030534,-0.226807,-0.558838,0.776123,0.00,0.00,0.00
437,-0.129771,-0.358779,-0.496183,-0.239746,-0.566162,0.777832,0.00,0.00,0.00
438,-0.229008,-0.381679,-0.503817,-0.238037,-0.565918,0.781982,0.00,0.00,0.00
439,0.099237,-0.786260,-0.709924,-0.255127,-0.566406,0.769287,0.00,0.00,0.00
440,-0.229008,-0.419847,-0.503817,-0.228027,-0.564941,0.766357,0.00,0.00,0.00
441,-0.320611,-0.229008,-0.572519,-0.221436,-0.560791,0.785889,0.00,0.00,0.00
442,-0.374046,0.045802,-0.152672,-0.218262,-0.559814,0.769531,0.00,0.00,0.00
443,-0.206107,0.022901,-0.465649,-0.246094,-0.571045,0.770020,0.00,0.00,0.00
444,-0.282443,-0.610687,-0.427481,-0.236328,-0.562744,0.773682,0.00,0.00,0.00
445,0.045802,-0.557252,-0.641221,-0.248047,-0.564697,0.798584,0.00,0.00,0.00
446,-0.145038,-0.160305,-0.381679,-0.224365,-0.555664,0.769531,0.00,0.00,0.00
447,-0.778626,0.236641,-0.229008,-0.206299,-0.562256,0.782715,0.00,0.00,0.00
448,-0.511450,0.007634,-0.030534,-0.228027,-0.563721,0.777344,0.00,0.00,0.00
449,-0.709924,0.244275,-0.221374,-0.243164,-0.562988,0.767822,0.00,0.00,0.00
450,-0.648855,-0.099237,-0.259542,-0.238525,-0.563477,0.772461,0.00,0.00,0.00
451,-0.259542,0.038168,-0.419847,-0.246094,-0.557861,0.765381,0.00,0.00,0.00
452,-0.656489,0.061069,-0.244275,-0.234619,-0.564209,0.777832,0.00,0.00,0.00
453,-0.893130,0.206107,-0.152672,-0.222412,-0.570312,0.781738,0.00,0.00,0.00
454,-0.824427,0.000000,-0.038168,-0.239990,-0.564453,0.774414,0.00,0.00,0.00
455,-0.832061,0.343511,-0.053435,-0.232910,-0.568115,0.770020,0.00,0.00,0.00
456,-0.793893,0.045802,-0.183206,-0.235840,-0.560303,0.773926,0.00,0.00,0.00
457,-0.885496,0.335878,-0.045802,-0.232910,-0.562012,0.768555,0.00,0.00,0.00
458,-0.557252,-0.251908,-0.145038,-0.238525,-0.560547,0.762939,0.00,0.00,0.00
459,-1.099237,-0.045802,-0.343511,-0.239014,-0.571289,0.794922,0.00,0.00,0.00
460,-0.778626,0.145038,-0.160305,-0.234375,-0.558838,0.772461,0.00,0.00,0.00
461,-0.877863,0.267176,0.038168,-0.227783,-0.569580,0.774902,0.00,0.00,0.00
462,-1.030534,0.442748,0.007634,-0.234131,-0.559082,0.774170,0.00,0.00,0.00
463,-1.236641,0.458015,0.015267,-0.231934,-0.568359,0.767822,0.00,0.00,0.00
464,-0.992366,0.458015,0.038168,-0.230957,-0.560303,0.773926,0.00,0.00,0.00
465,-0.847328,0.351145,-0.022901,-0.235596,-0.564453,0.772217,0.00,0.00,0.00
466,-0.908397,0.167939,-0.099237,-0.232666,-0.555420,0.767334,0.00,0.00,0.00
467,-0.923664,0.305344,0.053435,-0.242188,-0.559814,0.777588,0.00,0.00,0.00
468,-0.977099,0.259542,0.221374,-0.227539,-0.565430,0.780518,0.00,0.00,0.00
469,-0.793893,0.267176,0.022901,-0.228516,-0.566406,0.767822,0.00,0.00,0.00
470,-0.885496,0.473282,-0.076336,-0.233887,-0.565430,0.767334,0.00,0.00,0.00
471,-0.992366,0.244275,-0.045802,-0.239746,-0.563965,0.768066,0.00,0.00,0.00
472,-0.816794,0.114504,-0.022901,-0.233154,-0.570557,0.766113,0.00,0.00,0.00
473,-0.824427,0.114504,-0.198473,-0.244629,-0.558838,0.780029,0.00,0.00,0.00
474,-0.854962,0.183206,-0.160305,-0.236572,-0.568359,0.772705,0.00,0.00,0.00
475,-0.854962,0.068702,-0.259542,-0.230957,-0.564209,0.773193,0.00,0.00,0.00
476,-0.618321,0.244275,-0.076336,-0.230469,-0.563477,0.779053,0.00,0.00,0.00
477,-0.755725,0.221374,-0.076336,-0.234131,-0.561279,0.767334,0.00,0.00,0.00
478,-0.793893,0.183206,-0.167939,-0.240479,-0.564209,0.768555,0.00,0.00,0.00
479,-0.977099,0.152672,-0.152672,-0.237061,-0.563721,0.783691,0.00,0.00,0.00
480,-1.152672,0.343511,-0.175573,-0.234863,-0.560303,0.774170,0.00,0.00,0.00
481,-1.450382,0.572519,0.099237,-0.228760,-0.562500,0.784424,0.00,0.00,0.00
482,-1.511450,0.610687,0.198473,-0.225342,-0.563232,0.777344,0.00,0.00,0.00
483,-1.564885,0.847328,0.213740,-0.235840,-0.568848,0.773438,0.00,0.00,0.00
484,-1.290076,0.648855,0.000000,-0.248291,-0.567139,0.764648,0.00,0.00,0.00
485,-1.694656,0.702290,0.007634,-0.242920,-0.560791,0.776855,0.00,0.00,0.00
486,-1.618321,0.709924,-0.022901,-0.231689,-0.564453,0.764893,0.00,0.00,0.00
487,-1.763359,0.572519,0.030534,-0.234375,-0.565430,0.773682,0.00,0.00,0.00
488,-1.694656,0.534351,-0.015267,-0.234375,-0.560791,0.772217,0.00,0.00,0.00
489,-1.595420,0.603053,0.030534,-0.234131,-0.561523,0.771240,0.00,0.00,0.00
490,-1.664122,0.480916,-0.083969,-0.239746,-0.564941,0.768555,0.00,0.00,0.00
491,-1.541985,0.671756,-0.160305,-0.247559,-0.569580,0.776123,0.00,0.00,0.00
492,-1.740458,0.427481,-0.091603,-0.238770,-0.563232,0.774170,0.00,0.00,0.00
493,-1.931298,0.435115,-0.160305,-0.235352,-0.567383,0.768555,0.00,0.00,0.00
494,-2.106870,0.564885,-0.190840,-0.241699,-0.565430,0.771729,0.00,0.00,0.00
495,-2.328244,-0.076336,-0.641221,-0.246338,-0.560547,0.761230,0.00,0.00,0.00
496,-2.473282,0.442748,-0.335878,-0.238281,-0.568359,0.767822,0.00,0.00,0.00
497,-2.702290,0.687023,-0.312977,-0.239258,-0.562500,0.771729,0.00,0.00,0.00
498,-2.740458,0.580153,-0.557252,-0.237061,-0.566895,0.776123,0.00,0.00,0.00
499,-3.030534,0.717557,-0.404580,-0.251221,-0.564941,0.771484,0.00,0.00,0.00
500,-3.290076,0.496183,-0.694656,-0.247559,-0.564209,0.771729,0.00,0.00,0.00
501,-3.374046,0.435115,-0.671756,-0.244629,-0.562744,0.773682,0.00,0.00,0.00
502,-3.717557,0.305344,-0.900763,-0.247070,-0.565186,0.772217,0.00,0.00,0.00
503,-3.702290,-0.167939,-1.167939,-0.246826,-0.571777,0.778564,0.00,0.00,0.00
504,-4.038168,0.099237,-1.206107,-0.243408,-0.570557,0.767822,0.00,0.00,0.00
505,-4.435115,0.083969,-1.282443,-0.256104,-0.567139,0.776123,0.00,0.00,0.00
506,-4.526718,0.297710,-1.572519,-0.243896,-0.572021,0.773682,0.00,0.00,0.00
507,-5.015267,-0.145038,-1.725191,-0.252930,-0.562256,0.774902,0.00,0.00,0.00
508,-5.381679,-0.412214,-2.244275,-0.260254,-0.567383,0.771973,0.00,0.00,0.00
509,-5.641221,-0.740458,-2.312977,-0.254395,-0.573486,0.789307,0.00,0.00,0.00
510,-5.954198,-0.725191,-2.587786,-0.250488,-0.569336,0.765625,0.00,0.00,0.00
511,-6.282443,-1.267176,-2.938931,-0.258057,-0.572266,0.775879,0.00,0.00,0.00
512,-6.564885,-0.862595,-2.969466,-0.258301,-0.575684,0.758789,0.00,0.00,0.00
513,-6.755725,-1.000000,-3.190840,-0.254395,-0.574951,0.762451,0.00,0.00,0.00
514,-6.877863,-1.595420,-3.526718,-0.258789,-0.573975,0.772461,0.00,0.00,0.00
515,-7.160305,-1.587786,-3.847328,-0.250488,-0.577148,0.768311,0.00,0.00,0.00
516,-7.625954,-1.748092,-4.091603,-0.235840,-0.570801,0.781982,0.00,0.00,0.00
517,-7.725191,-2.152672,-4.160305,-0.239502,-0.575684,0.761475,0.00,0.00,0.00
518,-7.458015,-1.938931,-4.015267,-0.240479,-0.571533,0.778320,0.00,0.00,0.00
519,-8.083969,-2.183206,-4.381679,-0.237793,-0.570068,0.765869,0.00,0.00,0.00
520,-8.458015,-2.366412,-4.534351,-0.241455,-0.577393,0.780762,0.00,0.00,0.00
521,-8.732824,-2.480916,-4.709924,-0.252441,-0.580322,0.775391,0.00,0.00,0.00
522,-9.083969,-2.618321,-5.236641,-0.264893,-0.573242,0.767822,0.00,0.00,0.00
523,-9.358779,-2.854962,-5.809160,-0.275391,-0.581055,0.776123,0.00,0.00,0.00
524,-9.419847,-2.633588,-6.389313,-0.266602,-0.596191,0.781982,0.00,0.00,0.00
525,-10.648855,-3.603053,-6.885496,-0.257080,-0.578613,0.773682,0.00,0.00,0.00
526,-11.366412,-4.992366,-7.961832,-0.265869,-0.566895,0.769775,0.00,0.00,0.00
527,-11.534351,-3.648855,-8.824427,-0.234619,-0.584473,0.754883,0.00,0.00,0.00
528,-11.229008,2.809160,-10.450382,-0.193359,-0.593506,0.746094,0.00,0.00,0.00
529,-10.114504,4.687023,-11.610687,-0.238281,-0.595215,0.733154,0.00,0.00,0.00
530,-9.877863,4.145038,-12.893130,-0.279785,-0.596436,0.753418,0.00,0.00,0.00
531,-9.526718,6.358779,-16.343511,-0.249023,-0.583008,0.745605,0.00,0.00,0.00
532,-8.801527,11.190840,-18.740458,-0.180664,-0.592529,0.724121,0.00,0.00,0.00
533,-6.725191,18.572519,-20.549618,-0.154297,-0.600098,0.731934,0.00,0.00,0.00
534,-6.877863,22.687023,-22.435115,-0.187500,-0.564209,0.752686,0.00,0.00,0.00
535,-7.061069,23.984733,-23.931298,-0.224121,-0.575195,0.769531,0.00,0.00,0.00
536,-6.175573,25.694656,-25.198473,-0.264648,-0.596191,0.740967,0.00,0.00,0.00
537,-5.687023,25.335878,-26.083969,-0.289795,-0.596924,0.749512,0.00,0.00,0.00
538,-5.061069,24.061069,-27.145038,-0.294189,-0.592285,0.741943,0.00,0.00,0.00
539,-4.633588,22.931298,-27.167939,-0.281494,-0.606445,0.733398,0.00,0.00,0.00
540,-3.679389,21.954198,-27.160305,-0.266846,-0.602783,0.732910,0.00,0.00,0.00
541,-4.007634,20.038168,-27.015267,-0.235107,-0.587646,0.751221,0.00,0.00,0.00
542,-3.801527,19.236641,-26.412214,-0.215576,-0.599854,0.739258,0.00,0.00,0.00
543,-3.450382,19.106870,-25.305344,-0.207764,-0.589600,0.751465,0.00,0.00,0.00
544,-3.259542,18.473282,-25.106870,-0.207520,-0.598633,0.739502,0.00,0.00,0.00
545,-2.671756,18.480916,-23.900763,-0.199463,-0.601562,0.741211,0.00,0.00,0.00
546,-2.412214,18.496183,-22.740458,-0.198242,-0.599121,0.747559,0.00,0.00,0.00
547,-1.564885,18.190840,-21.832061,-0.199463,-0.612549,0.736816,0.00,0.00,0.00
548,-1.786260,17.198473,-20.389313,-0.208740,-0.590820,0.743408,0.00,0.00,0.00
549,-1.709924,15.580153,-19.442748,-0.203613,-0.596191,0.741699,0.00,0.00,0.00
550,-1.282443,14.145038,-18.251908,-0.212158,-0.597900,0.748291,0.00,0.00,0.00
551,-1.145038,12.442748,-17.007634,-0.210938,-0.595947,0.755859,0.00,0.00,0.00
552,-1.404580,10.931298,-15.717557,-0.200195,-0.591553,0.741211,0.00,0.00,0.00
553,-1.488550,9.114504,-14.213740,-0.198242,-0.594482,0.752686,0.00,0.00,0.00
554,-1.931298,6.748092,-12.664122,-0.189941,-0.591064,0.760010,0.00,0.00,0.00
555,-2.274809,4.244275,-11.274809,-0.179199,-0.594727,0.763672,0.00,0.00,0.00
556,-2.648855,3.305344,-8.916031,-0.171875,-0.598145,0.774170,0.00,0.00,0.00
557,-3.236641,2.312977,-6.793893,-0.169189,-0.593750,0.763184,0.00,0.00,0.00
558,-3.801527,0.908397,-4.603053,-0.170410,-0.582520,0.772217,0.00,0.00,0.00
559,-4.534351,-0.320611,-2.694656,-0.169678,-0.585938,0.775146,0.00,0.00,0.00
560,-4.938931,-1.137405,-1.198473,-0.153076,-0.595947,0.765381,0.00,0.00,0.00
561,-5.511450,-0.312977,0.412214,-0.111084,-0.585938,0.783691,0.00,0.00,0.00
562,-6.229008,1.725191,1.961832,-0.122314,-0.596924,0.764160,0.00,0.00,0.00
563,-6.442748,2.900763,2.938931,-0.152100,-0.600342,0.763672,0.00,0.00,0.00
564,-6.931298,3.160305,3.503817,-0.190430,-0.590820,0.750732,0.00,0.00,0.00
565,-7.374046,2.877863,3.801527,-0.217041,-0.595215,0.763916,0.00,0.00,0.00
566,-7.717557,3.129771,4.358779,-0.223145,-0.607178,0.768066,0.00,0.00,0.00
567,-7.931298,3.435115,4.679389,-0.218994,-0.604736,0.751953,0.00,0.00,0.00
568,-8.358779,3.435115,4.938931,-0.222412,-0.604736,0.750488,0.00,0.00,0.00
569,-8.679389,3.557252,5.480916,-0.227539,-0.611328,0.756348,0.00,0.00,0.00
570,-9.145038,2.740458,5.885496,-0.244141,-0.611084,0.746582,0.00,0.00,0.00
571,-9.419847,1.809160,6.053435,-0.255615,-0.604492,0.743652,0.00,0.00,0.00
572,-9.717557,0.259542,6.244275,-0.257568,-0.605225,0.748047,0.00,0.00,0.00
573,-10.129771,-0.977099,6.175573,-0.251465,-0.607666,0.746582,0.00,0.00,0.00
574,-10.145038,-2.358779,6.030534,-0.251709,-0.610840,0.743408,0.00,0.00,0.00
575,-10.374046,-4.396947,5.503817,-0.249268,-0.601807,0.726562,0.00,0.00,0.00
576,-10.572519,-4.328244,5.633588,-0.245850,-0.616455,0.757568,0.00,0.00,0.00
577,-10.793893,-3.977099,6.175573,-0.239502,-0.608398,0.744385,0.00,0.00,0.00
578,-10.793893,-3.854962,5.984733,-0.236572,-0.616943,0.738525,0.00,0.00,0.00
579,-10.931298,-3.938931,5.748092,-0.241211,-0.607178,0.738037,0.00,0.00,0.00
580,-10.832061,-3.572519,5.412214,-0.234131,-0.611816,0.733643,0.00,0.00,0.00
581,-10.564885,-3.671756,4.519084,-0.242188,-0.618164,0.725830,0.00,0.00,0.00
582,-10.610687,-3.534351,3.770992,-0.256104,-0.609863,0.738770,0.00,0.00,0.00
583,-10.541985,-2.656489,3.259542,-0.250732,-0.620117,0.729736,0.00,0.00,0.00
584,-10.519084,-1.931298,2.778626,-0.253906,-0.621582,0.729492,0.00,0.00,0.00
585,-10.503817,-1.793893,2.312977,-0.257812,-0.618652,0.731445,0.00,0.00,0.00
586,-10.458015,-1.244275,1.816794,-0.235596,-0.614258,0.737793,0.00,0.00,0.00
587,-10.206107,-0.816794,1.106870,-0.234131,-0.620361,0.729736,0.00,0.00,0.00
588,-10.022901,-1.083969,0.213740,-0.247314,-0.616699,0.728516,0.00,0.00,0.00
589,-9.984733,-0.534351,-0.251908,-0.250732,-0.620361,0.732178,0.00,0.00,0.00
590,-10.061069,0.221374,-0.404580,-0.237549,-0.618408,0.720947,0.00,0.00,0.00
591,-9.679389,0.992366,-0.679389,-0.243896,-0.632080,0.711914,0.00,0.00,0.00
592,-9.526718,0.748092,-1.343511,-0.246338,-0.623779,0.727539,0.00,0.00,0.00
593,-9.244275,0.496183,-1.847328,-0.258545,-0.628418,0.728760,0.00,0.00,0.00
594,-9.145038,0.351145,-2.274809,-0.256104,-0.625488,0.715088,0.00,0.00,0.00
595,-8.900763,0.038168,-2.541985,-0.259033,-0.627441,0.716309,0.00,0.00,0.00
596,-8.824427,-0.519084,-3.137405,-0.254639,-0.623535,0.726807,0.00,0.00,0.00
597,-8.580153,-0.549618,-3.297710,-0.243408,-0.624023,0.718506,0.00,0.00,0.00
598,-8.091603,-0.557252,-3.610687,-0.238525,-0.629639,0.714111,0.00,0.00,0.00
599,-7.717557,-0.473282,-3.572519,-0.238770,-0.631592,0.706543,0.00,0.00,0.00
600,-7.091603,-0.824427,-4.114504,-0.242676,-0.629150,0.708496,0.00,0.00,0.00
601,-6.770992,-1.488550,-4.206107,-0.247070,-0.627441,0.703125,0.00,0.00,0.00
602,-6.267176,-1.847328,-4.351145,-0.241943,-0.627686,0.708740,0.00,0.00,0.00
603,-5.893130,-1.648855,-4.206107,-0.228516,-0.637695,0.702637,0.00,0.00,0.00
604,-5.358779,-1.526718,-4.114504,-0.220459,-0.637451,0.701904,0.00,0.00,0.00
605,-5.061069,-1.358779,-3.824427,-0.219727,-0.634277,0.704346,0.00,0.00,0.00
606,-4.618321,-1.198473,-3.519084,-0.211670,-0.626709,0.714355,0.00,0.00,0.00
607,-4.435115,-1.106870,-3.061069,-0.211426,-0.623535,0.713623,0.00,0.00,0.00
608,-4.221374,-1.305344,-2.564885,-0.199219,-0.635010,0.716553,0.00,0.00,0.00
609,-3.610687,-1.641221,-2.175573,-0.203613,-0.625244,0.720459,0.00,0.00,0.00
610,-3.480916,-1.366412,-1.641221,-0.195312,-0.633545,0.718750,0.00,0.00,0.00
611,-3.374046,-0.557252,-0.595420,-0.189697,-0.632324,0.716309,0.00,0.00,0.00
612,-3.366412,-0.145038,-0.099237,-0.186279,-0.626953,0.717041,0.00,0.00,0.00
613,-2.931298,0.175573,0.473282,-0.192871,-0.625977,0.712891,0.00,0.00,0.00
614,-2.732824,0.381679,1.312977,-0.194092,-0.635010,0.711182,0.00,0.00,0.00
615,-2.083969,0.992366,1.938931,-0.187744,-0.626221,0.713379,0.00,0.00,0.00
616,-1.396947,0.748092,2.541985,-0.202148,-0.629883,0.701904,0.00,0.00,0.00
617,-0.908397,0.458015,3.122137,-0.204346,-0.635254,0.693848,0.00,0.00,0.00
618,-0.061069,0.137405,3.977099,-0.208740,-0.626465,0.702148,0.00,0.00,0.00
619,0.778626,-1.366412,4.541985,-0.231445,-0.634766,0.695801,0.00,0.00,0.00
620,1.297710,-2.549618,5.541985,-0.247559,-0.639648,0.702881,0.00,0.00,0.00
621,1.847328,-4.900763,5.694656,-0.253906,-0.640381,0.702637,0.00,0.00,0.00
622,2.496183,-7.175573,5.854962,-0.250977,-0.640625,0.711914,0.00,0.00,0.00
623,2.877863,-7.969466,6.335878,-0.242188,-0.633545,0.719238,0.00,0.00,0.00
624,3.045802,-8.274809,6.664122,-0.234619,-0.631592,0.705078,0.00,0.00,0.00
625,3.282443,-8.557252,6.633588,-0.231689,-0.635986,0.711914,0.00,0.00,0.00
626,3.770992,-8.114504,6.435115,-0.217041,-0.644043,0.712402,0.00,0.00,0.00
627,4.000000,-7.190840,6.396947,-0.221436,-0.632324,0.717041,0.00,0.00,0.00
628,4.328244,-6.038168,5.877863,-0.230225,-0.633545,0.705078,0.00,0.00,0.00
629,4.824427,-5.496183,5.610687,-0.227051,-0.635498,0.720703,0.00,0.00,0.00
630,5.389313,-4.564885,5.083969,-0.230469,-0.629395,0.713379,0.00,0.00,0.00
631,5.656489,-3.870229,4.427481,-0.227051,-0.635498,0.708496,0.00,0.00,0.00
632,6.320611,-3.038168,4.068702,-0.230957,-0.625488,0.708008,0.00,0.00,0.00
633,6.709924,-1.969466,4.015267,-0.219727,-0.634766,0.705078,0.00,0.00,0.00
634,7.519084,-1.984733,3.694656,-0.236328,-0.633545,0.701172,0.00,0.00,0.00
635,8.167939,-2.816794,3.091603,-0.237793,-0.637207,0.713379,0.00,0.00,0.00
636,8.633588,-3.160305,3.343511,-0.241455,-0.632568,0.714111,0.00,0.00,0.00
637,9.114504,-3.763359,3.488550,-0.251709,-0.622803,0.708252,0.00,0.00,0.00
638,9.770992,-4.916031,3.427481,-0.258301,-0.626465,0.700684,0.00,0.00,0.00
639,10.274809,-5.564885,3.488550,-0.239746,-0.633545,0.711182,0.00,0.00,0.00
640,11.061069,-6.282443,3.603053,-0.231201,-0.630127,0.712158,0.00,0.00,0.00
641,11.541985,-6.312977,3.664122,-0.229980,-0.633057,0.712646,0.00,0.00,0.00
642,11.885496,-6.335878,3.618321,-0.230469,-0.625732,0.724365,0.00,0.00,0.00
643,11.770992,-5.511450,3.290076,-0.234619,-0.626221,0.729492,0.00,0.00,0.00
644,11.419847,-4.755725,2.832061,-0.237061,-0.614746,0.738037,0.00,0.00,0.00
645,11.175573,-4.091603,2.221374,-0.230713,-0.606934,0.747803,0.00,0.00,0.00
646,10.763359,-3.648855,1.526718,-0.240967,-0.608398,0.760742,0.00,0.00,0.00
647,10.099237,-2.763359,1.106870,-0.230469,-0.605225,0.752441,0.00,0.00,0.00
648,9.190840,-2.083969,0.458015,-0.235107,-0.600098,0.764893,0.00,0.00,0.00
649,8.358779,-1.603053,0.190840,-0.241455,-0.598145,0.766113,0.00,0.00,0.00
650,7.206107,-1.381679,0.076336,-0.237061,-0.605225,0.769531,0.00,0.00,0.00
651,6.274809,-0.480916,0.335878,-0.225586,-0.596436,0.773682,0.00,0.00,0.00
652,5.427481,-0.175573,0.389313,-0.209961,-0.602051,0.763672,0.00,0.00,0.00
653,4.335878,-0.083969,0.290076,-0.200684,-0.596191,0.785645,0.00,0.00,0.00
654,3.488550,0.229008,0.664122,-0.193848,-0.598389,0.760254,0.00,0.00,0.00
655,2.656489,0.847328,0.938931,-0.201904,-0.597900,0.770996,0.00,0.00,0.00
656,1.519084,1.000000,1.221374,-0.209229,-0.607178,0.764160,0.00,0.00,0.00
657,0.519084,1.465649,1.335878,-0.209717,-0.598877,0.771973,0.00,0.00,0.00
658,-0.198473,1.763359,1.564885,-0.217041,-0.603271,0.758301,0.00,0.00,0.00
659,-0.870229,2.198473,1.625954,-0.219238,-0.605957,0.762695,0.00,0.00,0.00
660,-1.442748,2.458015,1.580153,-0.222168,-0.599854,0.757812,0.00,0.00,0.00
661,-2.335878,2.702290,1.992366,-0.221680,-0.610840,0.753174,0.00,0.00,0.00
662,-2.725191,3.007634,2.022901,-0.221924,-0.602295,0.770020,0.00,0.00,0.00
663,-3.129771,3.259542,2.175573,-0.224121,-0.606934,0.753174,0.00,0.00,0.00
664,-3.709924,3.465649,2.251908,-0.218994,-0.610840,0.758789,0.00,0.00,0.00
665,-4.030534,3.725191,2.229008,-0.227539,-0.608154,0.754150,0.00,0.00,0.00
666,-4.374046,3.740458,2.488550,-0.229492,-0.609131,0.747803,0.00,0.00,0.00
667,-5.022901,3.885496,2.511450,-0.223389,-0.615967,0.742432,0.00,0.00,0.00
668,-4.961832,3.908397,2.954198,-0.221436,-0.608887,0.745361,0.00,0.00,0.00
669,-5.061069,3.687023,3.435115,-0.228760,-0.619629,0.735840,0.00,0.00,0.00
670,-5.053435,3.068702,3.465649,-0.235596,-0.611816,0.737061,0.00,0.00,0.00
671,-5.351145,2.297710,3.770992,-0.237061,-0.614014,0.727051,0.00,0.00,0.00
672,-5.442748,1.664122,4.122137,-0.231445,-0.616943,0.737549,0.00,0.00,0.00
673,-5.549618,0.992366,4.274809,-0.238037,-0.617676,0.730957,0.00,0.00,0.00
674,-5.503817,0.503817,4.343511,-0.234619,-0.608398,0.736572,0.00,0.00,0.00
675,-5.488550,0.236641,4.465649,-0.235352,-0.613770,0.724609,0.00,0.00,0.00
676,-5.297710,0.053435,4.396947,-0.234863,-0.624756,0.731689,0.00,0.00,0.00
677,-5.297710,0.030534,4.335878,-0.237305,-0.618652,0.727051,0.00,0.00,0.00
678,-5.038168,0.312977,4.221374,-0.237549,-0.622070,0.718506,0.00,0.00,0.00
679,-4.648855,0.343511,4.122137,-0.238770,-0.622070,0.729248,0.00,0.00,0.00
680,-4.580153,0.442748,4.000000,-0.235840,-0.617920,0.729736,0.00,0.00,0.00
681,-4.251908,0.465649,3.709924,-0.241455,-0.618896,0.729248,0.00,0.00,0.00
682,-4.091603,0.465649,3.603053,-0.244629,-0.625000,0.717773,0.00,0.00,0.00
683,-3.618321,0.160305,3.427481,-0.251221,-0.620117,0.726318,0.00,0.00,0.00
684,-3.404580,-0.251908,3.160305,-0.247070,-0.621094,0.719238,0.00,0.00,0.00
685,-3.229008,-0.572519,2.908397,-0.254883,-0.620361,0.717285,0.00,0.00,0.00
686,-2.931298,-0.900763,2.832061,-0.245361,-0.617676,0.714355,0.00,0.00,0.00
687,-2.610687,-1.114504,2.603053,-0.239258,-0.616699,0.722656,0.00,0.00,0.00
688,-2.419847,-1.351145,2.854962,-0.237305,-0.615723,0.719971,0.00,0.00,0.00
689,-1.893130,-1.824427,2.793893,-0.243408,-0.619873,0.730469,0.00,0.00,0.00
690,-1.511450,-2.328244,2.786260,-0.242676,-0.620361,0.712891,0.00,0.00,0.00
691,-1.114504,-2.633588,2.816794,-0.231934,-0.623047,0.719238,0.00,0.00,0.00
692,-0.748092,-2.984733,2.671756,-0.235840,-0.616455,0.721924,0.00,0.00,0.00
693,-0.206107,-3.015267,2.870229,-0.231689,-0.623779,0.712891,0.00,0.00,0.00
694,0.251908,-3.137405,2.564885,-0.236084,-0.626465,0.707031,0.00,0.00,0.00
695,0.725191,-3.419847,2.473282,-0.241211,-0.625488,0.711182,0.00,0.00,0.00
696,1.496183,-3.511450,2.450382,-0.243164,-0.622070,0.710205,0.00,0.00,0.00
697,1.938931,-3.564885,2.290076,-0.244385,-0.619873,0.719727,0.00,0.00,0.00
698,2.564885,-3.595420,2.000000,-0.242920,-0.620117,0.715820,0.00,0.00,0.00
699,3.106870,-3.793893,1.732824,-0.244141,-0.620850,0.712891,0.00,0.00,0.00
700,3.770992,-3.664122,1.549618,-0.239990,-0.630615,0.722168,0.00,0.00,0.00
701,4.664122,-3.717557,1.282443,-0.239746,-0.623779,0.702881,0.00,0.00,0.00
702,5.274809,-3.374046,1.091603,-0.246826,-0.624512,0.712402,0.00,0.00,0.00
703,6.229008,-3.335878,0.679389,-0.250244,-0.623535,0.705566,0.00,0.00,0.00
704,6.770992,-3.564885,0.557252,-0.247803,-0.622314,0.714844,0.00,0.00,0.00
705,7.129771,-3.396947,0.259542,-0.258057,-0.623047,0.712891,0.00,0.00,0.00
706,7.664122,-3.656489,-0.206107,-0.260986,-0.614990,0.714844,0.00,0.00,0.00
707,7.900763,-4.076336,-0.671756,-0.259521,-0.615967,0.716797,0.00,0.00,0.00
708,8.198473,-4.251908,-1.099237,-0.255859,-0.618164,0.722168,0.00,0.00,0.00
709,8.442748,-4.412214,-1.328244,-0.251465,-0.612549,0.732178,0.00,0.00,0.00
710,8.702290,-4.557252,-1.641221,-0.250488,-0.616455,0.731201,0.00,0.00,0.00
711,8.725191,-4.534351,-2.000000,-0.248779,-0.611084,0.729980,0.00,0.00,0.00
712,8.717557,-4.610687,-2.190840,-0.248535,-0.615723,0.734619,0.00,0.00,0.00
713,8.717557,-4.870229,-2.343511,-0.251709,-0.613037,0.733398,0.00,0.00,0.00
714,8.832061,-4.755725,-2.503817,-0.246582,-0.607910,0.747314,0.00,0.00,0.00
715,8.786260,-4.748092,-2.984733,-0.249756,-0.607422,0.737061,0.00,0.00,0.00
716,8.618321,-4.671756,-2.908397,-0.236816,-0.607666,0.753906,0.00,0.00,0.00
717,8.633588,-4.083969,-2.847328,-0.226807,-0.603271,0.751953,0.00,0.00,0.00
718,8.404580,-3.122137,-2.610687,-0.232178,-0.600098,0.753906,0.00,0.00,0.00
719,8.290076,-3.076336,-2.725191,-0.216064,-0.608643,0.751709,0.00,0.00,0.00
720,8.152672,-3.786260,-3.198473,-0.242432,-0.607666,0.746338,0.00,0.00,0.00
721,7.931298,-4.114504,-3.335878,-0.239990,-0.595703,0.760986,0.00,0.00,0.00
722,7.106870,-3.419847,-3.282443,-0.225098,-0.595215,0.765869,0.00,0.00,0.00
723,6.656489,-3.267176,-3.419847,-0.214600,-0.603271,0.765625,0.00,0.00,0.00
724,6.122137,-2.572519,-3.343511,-0.211670,-0.595215,0.755371,0.00,0.00,0.00
725,5.145038,-1.687023,-3.267176,-0.214111,-0.597656,0.762695,0.00,0.00,0.00
726,4.572519,-1.007634,-3.541985,-0.219482,-0.591309,0.765381,0.00,0.00,0.00
727,3.503817,-0.572519,-3.442748,-0.221191,-0.595459,0.774902,0.00,0.00,0.00
728,2.755725,-0.045802,-3.366412,-0.218018,-0.594727,0.767578,0.00,0.00,0.00
729,2.007634,0.648855,-3.328244,-0.201416,-0.591064,0.769287,0.00,0.00,0.00
730,1.061069,1.381679,-3.190840,-0.206055,-0.596924,0.762451,0.00,0.00,0.00
731,0.557252,1.862595,-2.923664,-0.202637,-0.587402,0.769775,0.00,0.00,0.00
732,-0.244275,2.480916,-2.786260,-0.205566,-0.593994,0.770020,0.00,0.00,0.00
733,-1.076336,2.977099,-2.526718,-0.202148,-0.593994,0.770996,0.00,0.00,0.00
734,-1.633588,3.305344,-1.961832,-0.200928,-0.598633,0.770508,0.00,0.00,0.00
735,-2.221374,3.167939,-1.473282,-0.217529,-0.594727,0.772949,0.00,0.00,0.00
736,-2.923664,2.465649,-0.633588,-0.219971,-0.593262,0.766602,0.00,0.00,0.00
737,-3.702290,1.778626,0.312977,-0.209717,-0.598389,0.766602,0.00,0.00,0.00
738,-4.381679,1.801527,0.900763,-0.194580,-0.603027,0.777344,0.00,0.00,0.00
739,-4.816794,2.221374,1.442748,-0.181396,-0.600342,0.762451,0.00,0.00,0.00
740,-5.045802,3.152672,2.083969,-0.182129,-0.599854,0.755859,0.00,0.00,0.00
741,-5.404580,3.862595,2.541985,-0.198486,-0.601807,0.754395,0.00,0.00,0.00
742,-5.916031,4.076336,2.961832,-0.220459,-0.593018,0.745850,0.00,0.00,0.00
743,-6.198473,4.129771,3.068702,-0.225098,-0.600098,0.742920,0.00,0.00,0.00
744,-6.374046,4.015267,3.175573,-0.221436,-0.607666,0.752686,0.00,0.00,0.00
745,-6.396947,4.236641,3.297710,-0.209229,-0.602539,0.744141,0.00,0.00,0.00
746,-6.496183,4.572519,3.702290,-0.215820,-0.608398,0.748779,0.00,0.00,0.00
747,-6.809160,4.824427,3.916031,-0.216309,-0.606934,0.751953,0.00,0.00,0.00
748,-7.335878,5.503817,4.229008,-0.215088,-0.593750,0.758789,0.00,0.00,0.00
749,-6.885496,5.183206,4.633588,-0.230713,-0.622559,0.724854,0.00,0.00,0.00
750,-6.389313,4.595420,4.381679,-0.244141,-0.614258,0.739502,0.00,0.00,0.00
751,-6.167939,4.099237,4.290076,-0.257080,-0.605713,0.735596,0.00,0.00,0.00
752,-6.076336,3.335878,4.328244,-0.261963,-0.608154,0.729980,0.00,0.00,0.00
753,-6.038168,2.832061,3.862595,-0.249023,-0.607910,0.734131,0.00,0.00,0.00
754,-5.740458,3.015267,3.656489,-0.241699,-0.611084,0.731201,0.00,0.00,0.00
755,-5.435115,2.877863,3.328244,-0.244629,-0.619141,0.728760,0.00,0.00,0.00
756,-5.282443,3.061069,3.167939,-0.247803,-0.614258,0.730713,0.00,0.00,0.00
757,-5.106870,3.000000,2.717557,-0.245117,-0.613525,0.724121,0.00,0.00,0.00
758,-4.809160,2.839695,2.587786,-0.247070,-0.613525,0.717529,0.00,0.00,0.00
759,-4.656489,2.534351,2.290076,-0.247559,-0.609863,0.733887,0.00,0.00,0.00
760,-4.473282,2.473282,2.305344,-0.247559,-0.613525,0.732666,0.00,0.00,0.00
761,-4.450382,2.038168,2.274809,-0.242676,-0.611572,0.736572,0.00,0.00,0.00
762,-4.221374,1.778626,2.206107,-0.243164,-0.613770,0.726807,0.00,0.00,0.00
763,-4.320611,1.641221,2.282443,-0.232178,-0.614746,0.725830,0.00,0.00,0.00
764,-4.083969,1.458015,2.427481,-0.230469,-0.611084,0.726562,0.00,0.00,0.00
765,-3.862595,1.236641,2.511450,-0.234619,-0.616943,0.735596,0.00,0.00,0.00
766,-3.664122,0.832061,2.763359,-0.235840,-0.615479,0.724854,0.00,0.00,0.00
767,-3.717557,0.091603,3.076336,-0.238037,-0.613281,0.736328,0.00,0.00,0.00
768,-3.610687,-0.404580,3.458015,-0.239258,-0.608887,0.731445,0.00,0.00,0.00
769,-3.427481,-0.900763,3.702290,-0.234131,-0.614990,0.729980,0.00,0.00,0.00
770,-3.259542,-1.458015,3.893130,-0.231445,-0.620361,0.725342,0.00,0.00,0.00
771,-3.076336,-1.862595,4.122137,-0.223389,-0.613770,0.729004,0.00,0.00,0.00
772,-2.916031,-1.717557,4.618321,-0.227783,-0.616455,0.721680,0.00,0.00,0.00
773,-2.419847,-2.007634,4.893130,-0.229980,-0.612305,0.730957,0.00,0.00,0.00
774,-2.358779,-2.183206,5.106870,-0.228760,-0.611328,0.717285,0.00,0.00,0.00
775,-2.030534,-2.526718,5.083969,-0.239990,-0.610596,0.719727,0.00,0.00,0.00
776,-1.625954,-2.595420,5.183206,-0.242188,-0.610596,0.720215,0.00,0.00,0.00
777,-0.961832,-3.114504,5.343511,-0.243164,-0.618896,0.722168,0.00,0.00,0.00
778,-0.664122,-3.374046,5.229008,-0.242920,-0.615723,0.715088,0.00,0.00,0.00
779,-0.167939,-3.580153,5.366412,-0.233887,-0.620117,0.717041,0.00,0.00,0.00
780,0.374046,-3.702290,5.480916,-0.236816,-0.618896,0.710938,0.00,0.00,0.00
781,0.832061,-4.305344,5.251908,-0.237061,-0.619873,0.717529,0.00,0.00,0.00
782,1.145038,-4.610687,5.633588,-0.248535,-0.616211,0.721191,0.00,0.00,0.00
783,1.755725,-5.343511,5.343511,-0.248779,-0.621094,0.715088,0.00,0.00,0.00
784,2.244275,-5.931298,5.343511,-0.253418,-0.615479,0.714844,0.00,0.00,0.00
785,2.893130,-6.274809,5.213740,-0.251465,-0.614014,0.716064,0.00,0.00,0.00
786,3.167939,-6.511450,5.274809,-0.249268,-0.614014,0.712891,0.00,0.00,0.00
787,3.427481,-6.335878,5.083969,-0.252686,-0.618164,0.726807,0.00,0.00,0.00
788,3.648855,-6.183206,4.458015,-0.257080,-0.618164,0.738770,0.00,0.00,0.00
789,3.648855,-5.778626,4.022901,-0.258301,-0.614258,0.736572,0.00,0.00,0.00
790,3.694656,-5.450382,3.206107,-0.255615,-0.611084,0.753906,0.00,0.00,0.00
791,3.618321,-4.595420,2.358779,-0.255371,-0.607666,0.739258,0.00,0.00,0.00
792,3.664122,-3.809160,1.503817,-0.257080,-0.616455,0.748535,0.00,0.00,0.00
793,3.618321,-2.694656,0.572519,-0.261719,-0.606445,0.742676,0.00,0.00,0.00
794,3.564885,-1.931298,-0.641221,-0.263916,-0.606934,0.723877,0.00,0.00,0.00
795,3.435115,-1.832061,-1.312977,-0.281982,-0.608643,0.732666,0.00,0.00,0.00
796,3.305344,-2.412214,-2.076336,-0.290039,-0.609863,0.745361,0.00,0.00,0.00
797,3.160305,-3.274809,-2.824427,-0.276611,-0.603516,0.740479,0.00,0.00,0.00
798,2.816794,-3.419847,-3.206107,-0.249268,-0.606201,0.743652,0.00,0.00,0.00
799,3.068702,-3.618321,-3.305344,-0.237793,-0.605713,0.735840,0.00,0.00,0.00
800,3.068702,-3.312977,-3.358779,-0.231201,-0.609619,0.733643,0.00,0.00,0.00
801,3.145038,-3.320611,-3.366412,-0.235107,-0.600586,0.736572,0.00,0.00,0.00
802,3.389313,-3.328244,-3.167939,-0.232178,-0.605713,0.735107,0.00,0.00,0.00
803,3.549618,-3.328244,-3.190840,-0.225098,-0.606201,0.734863,0.00,0.00,0.00
804,3.854962,-3.137405,-2.961832,-0.218994,-0.608154,0.737061,0.00,0.00,0.00
805,4.312977,-2.954198,-2.587786,-0.216064,-0.607910,0.733154,0.00,0.00,0.00
806,4.824427,-2.923664,-2.404580,-0.220215,-0.608398,0.734375,0.00,0.00,0.00
807,5.343511,-2.938931,-2.114504,-0.225830,-0.604004,0.730713,0.00,0.00,0.00
808,5.488550,-2.862595,-1.610687,-0.211426,-0.602783,0.726562,0.00,0.00,0.00
809,6.167939,-2.412214,-1.083969,-0.192139,-0.608887,0.736572,0.00,0.00,0.00
810,6.366412,-1.977099,-0.358779,-0.194336,-0.605713,0.735107,0.00,0.00,0.00
811,6.251908,-1.442748,0.015267,-0.209473,-0.602051,0.744629,0.00,0.00,0.00
812,5.832061,-1.450382,0.564885,-0.220459,-0.599365,0.758545,0.00,0.00,0.00
813,5.648855,-1.396947,0.641221,-0.229980,-0.605957,0.750000,0.00,0.00,0.00
814,5.572519,-0.847328,0.755725,-0.234375,-0.605713,0.750244,0.00,0.00,0.00
815,5.450382,-0.778626,0.618321,-0.228271,-0.592529,0.748779,0.00,0.00,0.00
816,4.931298,-1.114504,0.236641,-0.245361,-0.600586,0.756348,0.00,0.00,0.00
817,4.564885,-0.801527,0.389313,-0.232910,-0.609863,0.763184,0.00,0.00,0.00
818,3.954198,1.709924,1.221374,-0.219238,-0.599365,0.755615,0.00,0.00,0.00
819,3.931298,0.091603,0.358779,-0.238281,-0.601318,0.739258,0.00,0.00,0.00
820,3.961832,-1.076336,-0.083969,-0.247070,-0.620117,0.745117,0.00,0.00,0.00
821,3.847328,-0.931298,0.007634,-0.243896,-0.598389,0.741699,0.00,0.00,0.00
822,3.709924,-1.221374,-0.091603,-0.244629,-0.596680,0.761719,0.00,0.00,0.00
823,3.183206,-1.412214,-0.511450,-0.238770,-0.602051,0.757812,0.00,0.00,0.00
824,3.167939,-1.328244,-0.488550,-0.244385,-0.605225,0.745850,0.00,0.00,0.00
825,2.725191,-1.297710,-0.770992,-0.248047,-0.599365,0.761963,0.00,0.00,0.00
826,2.427481,-1.129771,-0.885496,-0.251709,-0.598877,0.756104,0.00,0.00,0.00
827,2.099237,-1.366412,-1.381679,-0.249756,-0.597168,0.753174,0.00,0.00,0.00
828,1.664122,-1.290076,-1.603053,-0.255371,-0.598389,0.754883,0.00,0.00,0.00
829,1.183206,-1.290076,-1.847328,-0.252686,-0.591553,0.759766,0.00,0.00,0.00
830,0.496183,-1.229008,-2.297710,-0.251709,-0.596680,0.770020,0.00,0.00,0.00
831,-0.007634,-0.801527,-2.404580,-0.245605,-0.596924,0.752441,0.00,0.00,0.00
832,-0.580153,-0.839695,-2.656489,-0.248291,-0.593262,0.760742,0.00,0.00,0.00
833,-1.038168,-0.580153,-2.694656,-0.230225,-0.593750,0.772949,0.00,0.00,0.00
834,-1.671756,-0.290076,-2.946565,-0.234863,-0.593506,0.753662,0.00,0.00,0.00
835,-2.343511,0.167939,-2.984733,-0.229736,-0.596191,0.762451,0.00,0.00,0.00
836,-2.824427,0.664122,-2.916031,-0.232178,-0.598389,0.764648,0.00,0.00,0.00
837,-3.480916,1.183206,-2.923664,-0.226562,-0.601074,0.764404,0.00,0.00,0.00
838,-4.076336,1.839695,-2.694656,-0.225830,-0.592041,0.757812,0.00,0.00,0.00
839,-4.610687,2.412214,-2.557252,-0.222900,-0.602295,0.755615,0.00,0.00,0.00
840,-4.862595,3.114504,-2.694656,-0.225586,-0.602539,0.753662,0.00,0.00,0.00
841,-5.007634,3.213740,-2.870229,-0.225586,-0.600098,0.749756,0.00,0.00,0.00
842,-5.198473,3.503817,-3.015267,-0.227539,-0.607666,0.749756,0.00,0.00,0.00
843,-5.366412,3.725191,-3.480916,-0.241699,-0.603271,0.753418,0.00,0.00,0.00
844,-5.603053,3.770992,-3.900763,-0.249512,-0.601807,0.750977,0.00,0.00,0.00
845,-5.778626,4.007634,-4.427481,-0.236572,-0.607178,0.745117,0.00,0.00,0.00
846,-5.770992,4.312977,-4.923664,-0.222412,-0.605469,0.734131,0.00,0.00,0.00
847,-5.450382,5.297710,-5.442748,-0.224609,-0.609863,0.742188,0.00,0.00,0.00
848,-5.480916,6.450382,-5.793893,-0.220947,-0.604492,0.741943,0.00,0.00,0.00
849,-5.206107,7.801527,-6.541985,-0.242432,-0.612549,0.742676,0.00,0.00,0.00
850,-5.564885,8.770992,-7.206107,-0.249023,-0.612549,0.760010,0.00,0.00,0.00
851,-5.755725,10.045802,-7.786260,-0.249268,-0.614746,0.761230,0.00,0.00,0.00
852,-6.190840,12.190840,-8.000000,-0.253174,-0.615234,0.760742,0.00,0.00,0.00
853,-6.458015,13.618321,-8.694656,-0.260010,-0.625244,0.743164,0.00,0.00,0.00
854,-6.213740,14.076336,-9.328244,-0.266357,-0.625488,0.722900,0.00,0.00,0.00
855,-6.251908,14.389313,-9.603053,-0.263672,-0.619385,0.719727,0.00,0.00,0.00
856,-6.274809,14.740458,-10.076336,-0.250732,-0.619141,0.741943,0.00,0.00,0.00
857,-6.656489,15.335878,-10.351145,-0.247314,-0.619141,0.743408,0.00,0.00,0.00
858,-6.763359,15.877863,-10.419847,-0.243896,-0.620117,0.736328,0.00,0.00,0.00
859,-6.595420,15.984733,-10.946565,-0.241211,-0.619141,0.725830,0.00,0.00,0.00
860,-6.274809,15.442748,-10.610687,-0.235840,-0.615234,0.726318,0.00,0.00,0.00
861,-6.374046,14.732824,-10.603053,-0.233398,-0.607910,0.733887,0.00,0.00,0.00
862,-6.557252,14.114504,-10.511450,-0.240967,-0.614990,0.759277,0.00,0.00,0.00
863,-7.038168,14.152672,-10.358779,-0.245850,-0.625732,0.761475,0.00,0.00,0.00
864,-7.702290,13.160305,-10.396947,-0.265869,-0.619385,0.754883,0.00,0.00,0.00
865,-7.870229,11.961832,-10.183206,-0.279541,-0.617432,0.741943,0.00,0.00,0.00
866,-8.648855,10.335878,-10.198473,-0.287598,-0.628906,0.759766,0.00,0.00,0.00
867,-8.923664,9.114504,-10.099237,-0.287109,-0.634521,0.752441,0.00,0.00,0.00
868,-9.045802,7.305344,-10.564885,-0.296143,-0.634277,0.740234,0.00,0.00,0.00
869,-9.129771,5.190840,-10.541985,-0.294434,-0.638916,0.742676,0.00,0.00,0.00
870,-8.816794,3.167939,-10.335878,-0.287842,-0.621826,0.738525,0.00,0.00,0.00
871,-9.977099,1.877863,-8.099237,-0.278809,-0.611328,0.726318,0.00,0.00,0.00
872,-12.206107,1.580153,-4.129771,-0.325439,-0.584717,0.704346,0.00,0.00,0.00
873,-15.389313,0.755725,0.213740,-0.398193,-0.572510,0.689941,0.00,0.00,0.00
874,-18.770992,-2.396947,4.389313,-0.479980,-0.555176,0.689453,0.00,0.00,0.00
875,-22.351145,-7.549618,8.022901,-0.543457,-0.565674,0.682373,0.00,0.00,0.00
876,-25.572519,-13.977099,11.732824,-0.592529,-0.571777,0.686035,0.00,0.00,0.00
877,-28.572519,-21.687023,16.053435,-0.567627,-0.590576,0.697754,0.00,0.00,0.00
878,-31.427481,-28.862595,19.816794,-0.642090,-0.549805,0.710693,0.00,0.00,0.00
879,-34.320611,-35.312977,24.190840,-0.619385,-0.559814,0.703613,0.00,0.00,0.00
880,-35.870229,-41.580153,28.213740,-0.616211,-0.557861,0.719482,0.00,0.00,0.00
881,-37.595420,-46.648855,32.587786,-0.583496,-0.545898,0.712646,0.00,0.00,0.00
882,-38.671756,-49.564885,37.480916,-0.551025,-0.545898,0.729980,0.00,0.00,0.00
883,-39.274809,-51.511450,42.442748,-0.508301,-0.541992,0.746826,0.00,0.00,0.00
884,-39.458015,-52.419847,45.984733,-0.504883,-0.522461,0.750732,0.00,0.00,0.00
885,-39.801527,-52.465649,50.900763,-0.481934,-0.523438,0.740479,0.00,0.00,0.00
886,-39.671756,-52.717557,55.000000,-0.492188,-0.515137,0.741455,0.00,0.00,0.00
887,-39.679389,-53.541985,58.770992,-0.508789,-0.509766,0.751709,0.00,0.00,0.00
888,-39.541985,-55.083969,61.786260,-0.523926,-0.504150,0.746826,0.00,0.00,0.00
889,-38.786260,-56.832061,64.770992,-0.529297,-0.501709,0.739990,0.00,0.00,0.00
890,-37.862595,-58.564885,67.633588,-0.522461,-0.503418,0.742188,0.00,0.00,0.00
891,-36.931298,-59.732824,70.564885,-0.511719,-0.510986,0.741455,0.00,0.00,0.00
892,-35.854962,-60.274809,73.091603,-0.497559,-0.512939,0.733643,0.00,0.00,0.00
893,-34.717557,-60.610687,75.931298,-0.492188,-0.511963,0.726074,0.00,0.00,0.00
894,-33.328244,-60.167939,78.984733,-0.468262,-0.509277,0.705078,0.00,0.00,0.00
895,-32.229008,-58.717557,81.854962,-0.461914,-0.505127,0.709717,0.00,0.00,0.00
896,-31.251908,-56.809160,84.763359,-0.437988,-0.483154,0.712646,0.00,0.00,0.00
897,-30.587786,-54.526718,87.450382,-0.418213,-0.467773,0.696289,0.00,0.00,0.00
898,-30.198473,-51.496183,90.259542,-0.395752,-0.453125,0.703125,0.00,0.00,0.00
899,-29.557252,-48.198473,92.992366,-0.392822,-0.455811,0.690430,0.00,0.00,0.00
900,-28.679389,-45.015267,94.969466,-0.398193,-0.456055,0.689453,0.00,0.00,0.00
901,-28.007634,-42.916031,96.083969,-0.408203,-0.456299,0.682129,0.00,0.00,0.00
902,-27.381679,-40.961832,97.312977,-0.422607,-0.455322,0.680664,0.00,0.00,0.00
903,-26.198473,-39.320611,97.732824,-0.418701,-0.454834,0.694824,0.00,0.00,0.00
904,-25.244275,-37.770992,98.183206,-0.409424,-0.463867,0.704102,0.00,0.00,0.00
905,-24.503817,-35.664122,98.572519,-0.400635,-0.471436,0.712158,0.00,0.00,0.00
906,-23.145038,-33.427481,99.007634,-0.383545,-0.491455,0.727051,0.00,0.00,0.00
907,-21.236641,-30.870229,100.038168,-0.377686,-0.511475,0.725342,0.00,0.00,0.00
908,-19.351145,-28.572519,100.618321,-0.389893,-0.530273,0.737793,0.00,0.00,0.00
909,-17.801527,-27.541985,100.541985,-0.400879,-0.533936,0.733154,0.00,0.00,0.00
910,-15.961832,-26.732824,100.412214,-0.410156,-0.536377,0.745850,0.00,0.00,0.00
911,-14.038168,-26.625954,99.786260,-0.426025,-0.554932,0.742188,0.00,0.00,0.00
912,-12.022901,-27.335878,99.091603,-0.442139,-0.571045,0.744385,0.00,0.00,0.00
913,-9.961832,-28.900763,97.526718,-0.447998,-0.586670,0.725830,0.00,0.00,0.00
914,-7.763359,-30.740458,96.572519,-0.446289,-0.577637,0.720703,0.00,0.00,0.00
915,-6.129771,-32.534351,94.465649,-0.441162,-0.578125,0.709229,0.00,0.00,0.00
916,-4.641221,-33.709924,92.519084,-0.418701,-0.574219,0.710449,0.00,0.00,0.00
917,-3.778626,-34.335878,90.450382,-0.408447,-0.553467,0.699463,0.00,0.00,0.00
918,-3.396947,-34.564885,88.412214,-0.395264,-0.559082,0.698730,0.00,0.00,0.00
919,-3.129771,-34.343511,85.801527,-0.385986,-0.562744,0.704346,0.00,0.00,0.00
920,-2.755725,-33.282443,83.595420,-0.369141,-0.567627,0.705566,0.00,0.00,0.00
921,-2.267176,-32.229008,81.488550,-0.356689,-0.579346,0.687500,0.00,0.00,0.00
922,-1.534351,-30.793893,79.908397,-0.352783,-0.593750,0.682861,0.00,0.00,0.00
923,-0.763359,-29.458015,78.793893,-0.353027,-0.605225,0.694824,0.00,0.00,0.00
924,0.076336,-28.343511,77.908397,-0.359131,-0.610352,0.681885,0.00,0.00,0.00
925,0.519084,-27.740458,77.358779,-0.368408,-0.623047,0.675293,0.00,0.00,0.00
926,1.022901,-27.687023,76.366412,-0.370361,-0.626709,0.672119,0.00,0.00,0.00
927,0.977099,-28.213740,75.832061,-0.373535,-0.627686,0.661133,0.00,0.00,0.00
928,1.015267,-28.015267,75.267176,-0.368164,-0.625244,0.659424,0.00,0.00,0.00
929,0.687023,-27.877863,75.007634,-0.349854,-0.629395,0.655029,0.00,0.00,0.00
930,0.267176,-27.343511,74.442748,-0.323486,-0.616943,0.650879,0.00,0.00,0.00
931,-0.335878,-26.503817,73.618321,-0.319092,-0.616943,0.642334,0.00,0.00,0.00
932,-1.290076,-25.717557,72.557252,-0.308838,-0.623779,0.649658,0.00,0.00,0.00
933,-2.114504,-24.580153,71.351145,-0.295898,-0.624268,0.656250,0.00,0.00,0.00
934,-2.450382,-23.366412,69.786260,-0.279785,-0.638428,0.642090,0.00,0.00,0.00
935,-2.664122,-22.770992,68.236641,-0.279053,-0.650391,0.651855,0.00,0.00,0.00
936,-2.839695,-21.717557,66.450382,-0.264404,-0.666504,0.655762,0.00,0.00,0.00
937,-2.274809,-20.534351,64.587786,-0.245850,-0.688721,0.661865,0.00,0.00,0.00
938,-1.389313,-19.381679,62.854962,-0.231445,-0.711182,0.664062,0.00,0.00,0.00
939,-0.335878,-18.229008,60.526718,-0.225586,-0.713867,0.655518,0.00,0.00,0.00
940,0.312977,-16.893130,58.190840,-0.212402,-0.714355,0.651367,0.00,0.00,0.00
941,0.648855,-16.137405,55.106870,-0.205078,-0.706787,0.646484,0.00,0.00,0.00
942,0.778626,-15.938931,51.419847,-0.201416,-0.707275,0.623535,0.00,0.00,0.00
943,0.328244,-15.580153,48.137405,-0.206787,-0.701904,0.633301,0.00,0.00,0.00
944,0.190840,-16.221374,43.229008,-0.213379,-0.705811,0.625732,0.00,0.00,0.00
945,-0.526718,-17.206107,38.175573,-0.218750,-0.707031,0.628174,0.00,0.00,0.00
946,-1.236641,-17.847328,33.328244,-0.218750,-0.718750,0.641602,0.00,0.00,0.00
947,-1.000000,-17.618321,28.671756,-0.217041,-0.780273,0.667969,0.00,0.00,0.00
948,0.900763,-16.610687,26.038168,-0.192139,-0.856445,0.669678,0.00,0.00,0.00
949,5.274809,-15.122137,24.740458,-0.171143,-0.908203,0.674561,0.00,0.00,0.00
950,10.099237,-12.748092,24.358779,-0.149902,-0.915527,0.676514,0.00,0.00,0.00
951,14.572519,-9.374046,24.160305,-0.121094,-0.895752,0.666016,0.00,0.00,0.00
952,17.541985,-6.793893,23.580153,-0.110840,-0.855713,0.642822,0.00,0.00,0.00
953,19.595420,-3.961832,21.877863,-0.110352,-0.802734,0.634521,0.00,0.00,0.00
954,20.343511,-1.725191,19.564885,-0.101562,-0.755127,0.614502,0.00,0.00,0.00
955,19.534351,0.114504,16.488550,-0.114014,-0.714355,0.600586,0.00,0.00,0.00
956,17.381679,0.954198,12.526718,-0.114990,-0.690674,0.587402,0.00,0.00,0.00
957,13.297710,-5.458015,6.335878,-0.707764,-0.645752,0.693604,0.00,0.00,0.00
958,3.732824,-28.725191,-15.305344,-0.435303,-0.710449,0.493896,0.00,0.00,0.00
959,1.404580,-39.648855,-22.809160,-0.262695,-0.699463,0.531982,0.00,0.00,0.00
960,-0.916031,-43.862595,-25.374046,-0.105957,-0.755859,0.534668,0.00,0.00,0.00
961,-3.809160,-44.236641,-25.694656,0.062256,-0.817627,0.569824,0.00,0.00,0.00
962,-5.198473,-37.137405,-22.687023,0.140625,-0.866211,0.576416,0.00,0.00,0.00
963,-8.099237,-32.297710,-19.152672,0.101074,-0.838623,0.567871,0.00,0.00,0.00
964,-10.885496,-29.885496,-17.328244,0.029541,-0.803955,0.530029,0.00,0.00,0.00
965,-15.297710,-32.671756,-18.396947,-0.051758,-0.778564,0.507080,0.00,0.00,0.00
966,-21.274809,-38.022901,-20.007634,-0.065918,-0.756836,0.480713,0.00,0.00,0.00
967,-28.312977,-44.717557,-22.068702,-0.057617,-0.748047,0.476074,0.00,0.00,0.00
968,-34.511450,-47.351145,-22.916031,0.103760,-0.538818,0.515625,0.00,0.00,0.00
969,-36.977099,-38.335878,-21.625954,0.221924,-0.289307,0.720947,0.00,0.00,0.00
970,-40.351145,-29.305344,-18.274809,0.177734,-0.504883,0.839111,0.00,0.00,0.00
971,-38.129771,-24.564885,-19.916031,-0.002930,-0.653076,1.000488,0.00,0.00,0.00
972,-28.534351,-39.442748,-43.007634,-0.493408,-1.118896,1.177979,0.00,0.00,0.00
973,-8.458015,-30.183206,-38.061069,0.194092,-1.314453,0.974121,0.00,0.00,0.00
974,7.061069,-10.984733,-17.564885,0.222168,-1.055176,0.883057,0.00,0.00,0.00
975,9.908397,-2.763359,-6.671756,-0.204834,-0.759766,0.829102,0.00,0.00,0.00
976,8.145038,-4.664122,-7.938931,-0.425781,-0.544189,0.681885,0.00,0.00,0.00
977,3.381679,-7.381679,-11.442748,-0.488525,-0.407471,0.664551,0.00,0.00,0.00
978,-3.145038,-11.641221,-14.374046,-0.504639,-0.431885,0.718506,0.00,0.00,0.00
979,-6.328244,-13.022901,-13.977099,-0.489258,-0.553955,0.765381,0.00,0.00,0.00
980,-5.190840,-12.923664,-13.145038,-0.395264,-0.672852,0.775635,0.00,0.00,0.00
981,-2.267176,-11.755725,-11.717557,-0.252197,-0.667725,0.752441,0.00,0.00,0.00
982,-0.190840,-10.977099,-10.793893,-0.199219,-0.604004,0.745117,0.00,0.00,0.00
983,0.709924,-11.297710,-11.374046,-0.241699,-0.562988,0.728271,0.00,0.00,0.00
984,1.519084,-14.221374,-12.595420,-0.362305,-0.590088,0.724609,0.00,0.00,0.00
985,2.687023,-15.473282,-12.007634,-0.417236,-0.645752,0.699951,0.00,0.00,0.00
986,4.358779,-15.396947,-11.290076,-0.432617,-0.635498,0.690918,0.00,0.00,0.00
987,5.442748,-16.312977,-11.755725,-0.385010,-0.596924,0.699219,0.00,0.00,0.00
988,5.702290,-17.496183,-12.641221,-0.311768,-0.564453,0.730957,0.00,0.00,0.00
989,5.641221,-18.152672,-12.969466,-0.271729,-0.562256,0.762695,0.00,0.00,0.00
990,5.580153,-17.809160,-12.534351,-0.261475,-0.593262,0.757568,0.00,0.00,0.00
991,5.465649,-15.946565,-11.465649,-0.272705,-0.628906,0.782959,0.00,0.00,0.00
992,5.442748,-13.763359,-9.625954,-0.258545,-0.639404,0.767090,0.00,0.00,0.00
993,5.244275,-11.267176,-7.534351,-0.246338,-0.628662,0.771973,0.00,0.00,0.00
994,4.824427,-9.664122,-6.305344,-0.236328,-0.604248,0.769531,0.00,0.00,0.00
995,4.587786,-8.419847,-5.129771,-0.230713,-0.598389,0.754150,0.00,0.00,0.00
996,4.519084,-7.595420,-4.305344,-0.235840,-0.589600,0.767578,0.00,0.00,0.00
997,4.099237,-6.320611,-3.282443,-0.246338,-0.587158,0.761475,0.00,0.00,0.00
998,3.916031,-5.282443,-2.564885,-0.251221,-0.586670,0.751221,0.00,0.00,0.00
999,3.664122,-4.702290,-1.992366,-0.260986,-0.583984,0.757324,0.00,0.00,0.00
1000,3.244275,-3.954198,-1.549618,-0.246826,-0.581055,0.762939,0.00,0.00,0.00
1001,2.839695,-3.244275,-0.931298,-0.243652,-0.588623,0.766357,0.00,0.00,0.00
1002,2.435115,-2.007634,-0.229008,-0.251953,-0.586670,0.767822,0.00,0.00,0.00
1003,2.007634,-1.114504,0.404580,-0.263672,-0.592285,0.756104,0.00,0.00,0.00
1004,1.992366,-0.465649,0.847328,-0.290771,-0.599609,0.755615,0.00,0.00,0.00
1005,2.137405,-0.778626,0.335878,-0.332764,-0.580566,0.743896,0.00,0.00,0.00
1006,2.625954,-1.839695,-0.480916,-0.345703,-0.572266,0.716553,0.00,0.00,0.00
1007,3.244275,-3.297710,-1.541985,-0.341064,-0.573486,0.728516,0.00,0.00,0.00
1008,3.992366,-4.458015,-2.587786,-0.336182,-0.571777,0.731934,0.00,0.00,0.00
1009,3.862595,-5.580153,-3.282443,-0.316162,-0.571289,0.741699,0.00,0.00,0.00
1010,4.290076,-5.938931,-3.709924,-0.307129,-0.579590,0.737549,0.00,0.00,0.00
1011,4.435115,-6.267176,-3.839695,-0.298340,-0.570801,0.736084,0.00,0.00,0.00
1012,4.687023,-6.511450,-4.282443,-0.298340,-0.570801,0.752930,0.00,0.00,0.00
1013,4.404580,-6.725191,-4.381679,-0.288818,-0.572510,0.748779,0.00,0.00,0.00
1014,4.061069,-6.526718,-4.473282,-0.273682,-0.580811,0.764648,0.00,0.00,0.00
1015,4.282443,-6.206107,-4.221374,-0.267822,-0.583252,0.749268,0.00,0.00,0.00
1016,3.969466,-5.633588,-3.931298,-0.270508,-0.582275,0.756104,0.00,0.00,0.00
1017,3.732824,-5.374046,-3.786260,-0.277100,-0.576660,0.746338,0.00,0.00,0.00
1018,3.419847,-5.091603,-3.725191,-0.274902,-0.573242,0.749512,0.00,0.00,0.00
1019,3.488550,-5.099237,-3.519084,-0.263428,-0.572021,0.763672,0.00,0.00,0.00
1020,3.389313,-4.671756,-3.053435,-0.252197,-0.583496,0.755615,0.00,0.00,0.00
1021,3.259542,-4.267176,-2.786260,-0.247803,-0.577393,0.757324,0.00,0.00,0.00
1022,2.977099,-3.938931,-2.580153,-0.263428,-0.573242,0.751221,0.00,0.00,0.00
1023,2.572519,-3.587786,-2.297710,-0.257812,-0.580322,0.763184,0.00,0.00,0.00
1024,2.282443,-3.351145,-2.061069,-0.252441,-0.576904,0.765625,0.00,0.00,0.00
1025,2.167939,-3.106870,-1.648855,-0.252441,-0.570557,0.761719,0.00,0.00,0.00
1026,1.732824,-2.702290,-1.503817,-0.268311,-0.571045,0.755615,0.00,0.00,0.00
1027,1.526718,-2.305344,-1.511450,-0.269287,-0.573730,0.768311,0.00,0.00,0.00
1028,1.374046,-2.160305,-1.351145,-0.269775,-0.569092,0.765381,0.00,0.00,0.00
1029,1.152672,-2.022901,-1.198473,-0.263184,-0.574219,0.764160,0.00,0.00,0.00
1030,0.946565,-1.755725,-1.045802,-0.267822,-0.575439,0.764893,0.00,0.00,0.00
1031,0.740458,-1.572519,-1.068702,-0.265625,-0.573730,0.759033,0.00,0.00,0.00
1032,0.732824,-1.366412,-0.862595,-0.267090,-0.567383,0.760986,0.00,0.00,0.00
1033,0.496183,-1.396947,-0.625954,-0.269287,-0.573975,0.752930,0.00,0.00,0.00
1034,0.511450,-1.305344,-0.793893,-0.278809,-0.574707,0.751953,0.00,0.00,0.00
1035,0.564885,-1.305344,-0.679389,-0.266357,-0.572510,0.755859,0.00,0.00,0.00
1036,0.580153,-1.206107,-0.625954,-0.268311,-0.571289,0.757568,0.00,0.00,0.00
1037,0.694656,-1.229008,-0.923664,-0.274170,-0.567871,0.752441,0.00,0.00,0.00
1038,0.732824,-1.343511,-0.824427,-0.276855,-0.574219,0.749512,0.00,0.00,0.00
1039,0.816794,-1.351145,-0.908397,-0.278564,-0.567627,0.754150,0.00,0.00,0.00
1040,0.931298,-1.351145,-0.931298,-0.272461,-0.571045,0.756104,0.00,0.00,0.00
1041,1.022901,-1.435115,-1.083969,-0.267090,-0.572754,0.759521,0.00,0.00,0.00
1042,0.877863,-1.374046,-0.954198,-0.270264,-0.569824,0.758301,0.00,0.00,0.00
1043,0.946565,-1.351145,-0.938931,-0.271729,-0.566406,0.760742,0.00,0.00,0.00
1044,1.190840,-1.763359,-0.946565,-0.260498,-0.571289,0.756592,0.00,0.00,0.00
1045,0.961832,-1.511450,-0.862595,-0.248047,-0.573242,0.758789,0.00,0.00,0.00
1046,0.969466,-1.374046,-0.763359,-0.264160,-0.570557,0.765381,0.00,0.00,0.00
1047,1.099237,-1.541985,-0.725191,-0.277832,-0.563721,0.758789,0.00,0.00,0.00
1048,1.053435,-1.458015,-0.687023,-0.272461,-0.581299,0.764160,0.00,0.00,0.00
1049,1.183206,-1.480916,-0.740458,-0.277344,-0.567871,0.747070,0.00,0.00,0.00
1050,1.167939,-1.450382,-0.740458,-0.272949,-0.564941,0.757080,0.00,0.00,0.00
1051,1.305344,-1.557252,-0.969466,-0.278809,-0.569336,0.752930,0.00,0.00,0.00
1052,1.358779,-1.877863,-1.145038,-0.273193,-0.569336,0.748535,0.00,0.00,0.00
1053,1.801527,-2.091603,-1.221374,-0.272217,-0.567139,0.764648,0.00,0.00,0.00
1054,1.633588,-2.229008,-1.213740,-0.270020,-0.570801,0.752441,0.00,0.00,0.00
1055,1.832061,-2.213740,-1.328244,-0.268311,-0.571533,0.757812,0.00,0.00,0.00
1056,2.091603,-2.160305,-1.404580,-0.264404,-0.566650,0.766113,0.00,0.00,0.00
1057,2.038168,-1.900763,-1.129771,-0.263916,-0.567139,0.755371,0.00,0.00,0.00
1058,2.129771,-1.687023,-1.206107,-0.259277,-0.574951,0.761963,0.00,0.00,0.00
1059,2.160305,-1.908397,-1.236641,-0.272217,-0.569580,0.762695,0.00,0.00,0.00
1060,2.396947,-2.137405,-1.297710,-0.273926,-0.571289,0.762695,0.00,0.00,0.00
1061,2.671756,-2.206107,-1.351145,-0.268066,-0.569092,0.753662,0.00,0.00,0.00
1062,2.763359,-2.290076,-1.419847,-0.275391,-0.565674,0.754150,0.00,0.00,0.00
1063,2.748092,-2.427481,-1.572519,-0.267578,-0.563232,0.758301,0.00,0.00,0.00
1064,2.793893,-2.122137,-1.328244,-0.256104,-0.574707,0.764404,0.00,0.00,0.00
1065,2.679389,-2.129771,-1.007634,-0.250000,-0.568115,0.767578,0.00,0.00,0.00
1066,2.625954,-1.923664,-1.122137,-0.250000,-0.562744,0.759521,0.00,0.00,0.00
1067,2.572519,-1.633588,-1.030534,-0.262451,-0.562988,0.760498,0.00,0.00,0.00
1068,2.526718,-1.671756,-0.664122,-0.261475,-0.570068,0.754150,0.00,0.00,0.00
1069,2.564885,-1.603053,-0.748092,-0.263916,-0.570557,0.764893,0.00,0.00,0.00
1070,2.358779,-1.679389,-0.816794,-0.265137,-0.567383,0.768311,0.00,0.00,0.00
1071,2.503817,-1.709924,-0.664122,-0.266602,-0.567139,0.758057,0.00,0.00,0.00
1072,2.511450,-1.778626,-0.740458,-0.268799,-0.567627,0.752930,0.00,0.00,0.00
1073,2.549618,-1.557252,-0.671756,-0.258545,-0.572998,0.764893,0.00,0.00,0.00
1074,2.503817,-1.427481,-0.496183,-0.257812,-0.571533,0.767578,0.00,0.00,0.00
1075,2.328244,-1.534351,-0.473282,-0.263672,-0.566162,0.758057,0.00,0.00,0.00
1076,2.458015,-1.435115,-0.671756,-0.270020,-0.561279,0.763184,0.00,0.00,0.00
1077,2.511450,-1.603053,-1.007634,-0.282959,-0.565918,0.754639,0.00,0.00,0.00
1078,2.648855,-1.770992,-1.106870,-0.273438,-0.565674,0.755859,0.00,0.00,0.00
1079,2.717557,-1.809160,-1.190840,-0.272949,-0.572266,0.757812,0.00,0.00,0.00
1080,2.770992,-1.992366,-1.274809,-0.266113,-0.566895,0.753662,0.00,0.00,0.00
1081,2.801527,-1.916031,-1.114504,-0.274170,-0.564453,0.768555,0.00,0.00,0.00
1082,2.603053,-1.969466,-1.312977,-0.259521,-0.566162,0.759521,0.00,0.00,0.00
1083,2.496183,-1.786260,-0.969466,-0.250000,-0.568115,0.767822,0.00,0.00,0.00
1084,2.152672,-1.427481,-0.770992,-0.246826,-0.568115,0.771973,0.00,0.00,0.00
1085,2.091603,-1.114504,-0.450382,-0.250000,-0.564941,0.769043,0.00,0.00,0.00
1086,1.694656,-0.870229,-0.229008,-0.242432,-0.570312,0.773438,0.00,0.00,0.00
1087,1.488550,-0.610687,-0.190840,-0.256104,-0.565430,0.772217,0.00,0.00,0.00
1088,1.221374,-0.312977,0.145038,-0.255127,-0.570312,0.774902,0.00,0.00,0.00
1089,1.198473,-0.007634,0.190840,-0.255615,-0.561768,0.771973,0.00,0.00,0.00
1090,1.145038,-0.129771,0.251908,-0.256104,-0.564697,0.771484,0.00,0.00,0.00
1091,0.923664,0.129771,0.290076,-0.259521,-0.570068,0.762695,0.00,0.00,0.00
1092,0.809160,0.183206,0.297710,-0.261475,-0.567871,0.771240,0.00,0.00,0.00
1093,0.717557,0.206107,0.458015,-0.259766,-0.563965,0.768311,0.00,0.00,0.00
1094,0.496183,0.229008,0.496183,-0.268311,-0.564697,0.766357,0.00,0.00,0.00
1095,0.343511,0.396947,0.595420,-0.269775,-0.565674,0.764404,0.00,0.00,0.00
1096,0.335878,0.572519,0.465649,-0.265869,-0.567871,0.772705,0.00,0.00,0.00
1097,0.076336,0.702290,0.320611,-0.271729,-0.563965,0.764648,0.00,0.00,0.00
1098,0.000000,0.877863,0.358779,-0.268799,-0.562744,0.757324,0.00,0.00,0.00
1099,-0.190840,1.038168,0.198473,-0.269531,-0.565186,0.775391,0.00,0.00,0.00
1100,-0.366412,1.030534,0.259542,-0.274658,-0.570801,0.755859,0.00,0.00,0.00
1101,-0.473282,1.106870,0.030534,-0.276123,-0.566162,0.756348,0.00,0.00,0.00
1102,-0.503817,1.030534,-0.290076,-0.281494,-0.568359,0.763184,0.00,0.00,0.00
1103,-0.274809,0.511450,-0.366412,-0.282715,-0.570801,0.758789,0.00,0.00,0.00
1104,-0.183206,0.580153,-0.702290,-0.280273,-0.563721,0.755127,0.00,0.00,0.00
1105,-0.145038,0.366412,-0.633588,-0.271240,-0.565430,0.769775,0.00,0.00,0.00
1106,-0.335878,0.564885,-0.717557,-0.255127,-0.568604,0.771973,0.00,0.00,0.00
1107,-0.435115,0.458015,-0.816794,-0.257324,-0.564697,0.765869,0.00,0.00,0.00
1108,-0.832061,0.625954,-0.648855,-0.252441,-0.566162,0.761963,0.00,0.00,0.00
1109,-1.198473,1.114504,-0.419847,-0.247314,-0.560791,0.769287,0.00,0.00,0.00
1110,-1.648855,1.351145,-0.366412,-0.260498,-0.560059,0.771973,0.00,0.00,0.00
1111,-1.763359,1.809160,-0.091603,-0.254639,-0.561279,0.776611,0.00,0.00,0.00
1112,-2.290076,2.274809,-0.229008,-0.253418,-0.557861,0.772949,0.00,0.00,0.00
1113,-2.526718,2.274809,0.083969,-0.255615,-0.564697,0.768555,0.00,0.00,0.00
1114,-2.648855,2.534351,-0.022901,-0.264893,-0.567871,0.766846,0.00,0.00,0.00
1115,-3.000000,2.671756,-0.091603,-0.269287,-0.559082,0.773193,0.00,0.00,0.00
1116,-3.709924,3.061069,-0.282443,-0.272461,-0.557617,0.767578,0.00,0.00,0.00
1117,-3.900763,3.106870,-0.145038,-0.266846,-0.558350,0.771484,0.00,0.00,0.00
1118,-4.328244,3.480916,-0.412214,-0.267334,-0.559082,0.771729,0.00,0.00,0.00
1119,-5.312977,3.595420,-0.442748,-0.281494,-0.550293,0.772949,0.00,0.00,0.00
1120,-6.030534,3.702290,-0.603053,-0.280762,-0.565186,0.769043,0.00,0.00,0.00
1121,-6.854962,3.908397,-0.923664,-0.283447,-0.556396,0.772949,0.00,0.00,0.00
1122,-7.618321,4.022901,-1.145038,-0.292236,-0.560547,0.775879,0.00,0.00,0.00
1123,-8.549618,4.274809,-1.679389,-0.289795,-0.557861,0.774170,0.00,0.00,0.00
1124,-9.526718,4.374046,-2.099237,-0.305420,-0.556641,0.774170,0.00,0.00,0.00
1125,-10.763359,4.732824,-2.549618,-0.302734,-0.560059,0.772705,0.00,0.00,0.00
1126,-12.045802,4.702290,-3.221374,-0.301025,-0.558105,0.777832,0.00,0.00,0.00
1127,-13.480916,4.862595,-3.824427,-0.299072,-0.564941,0.779785,0.00,0.00,0.00
1128,-14.832061,5.358779,-4.335878,-0.304443,-0.554443,0.789795,0.00,0.00,0.00
1129,-16.587786,6.450382,-5.381679,-0.299072,-0.546387,0.802246,0.00,0.00,0.00
1130,-18.702290,7.656489,-6.183206,-0.304199,-0.550293,0.808838,0.00,0.00,0.00
1131,-20.824427,9.480916,-7.702290,-0.305420,-0.543213,0.816895,0.00,0.00,0.00
1132,-23.000000,14.053435,-10.068702,-0.292725,-0.532959,0.833008,0.00,0.00,0.00
1133,-24.244275,15.129771,-12.053435,-0.356201,-0.565918,0.780762,0.00,0.00,0.00
1134,-24.923664,16.473282,-16.335878,-0.333008,-0.552979,0.789307,0.00,0.00,0.00
1135,-24.015267,23.488550,-22.251908,-0.229004,-0.550781,0.791260,0.00,0.00,0.00
1136,-22.259542,32.977099,-28.564885,-0.169678,-0.562256,0.808838,0.00,0.00,0.00
1137,-20.679389,41.206107,-34.167939,-0.280029,-0.537842,0.807861,0.00,0.00,0.00
1138,-20.992366,43.549618,-39.923664,-0.396729,-0.533203,0.805908,0.00,0.00,0.00
1139,-21.343511,45.702290,-43.381679,-0.429688,-0.552002,0.763916,0.00,0.00,0.00
1140,-21.366412,46.083969,-46.809160,-0.427979,-0.561279,0.752441,0.00,0.00,0.00
1141,-21.648855,47.022901,-50.198473,-0.401123,-0.580322,0.729980,0.00,0.00,0.00
1142,-20.900763,48.625954,-52.770992,-0.378906,-0.599609,0.728271,0.00,0.00,0.00
1143,-19.961832,50.770992,-55.007634,-0.327881,-0.606445,0.734131,0.00,0.00,0.00
1144,-19.030534,53.755725,-57.519084,-0.336914,-0.608398,0.737793,0.00,0.00,0.00
1145,-18.206107,56.328244,-59.442748,-0.347168,-0.622803,0.728271,0.00,0.00,0.00
1146,-16.908397,58.389313,-61.419847,-0.368408,-0.623779,0.708984,0.00,0.00,0.00
1147,-15.916031,59.244275,-63.175573,-0.379639,-0.637695,0.703857,0.00,0.00,0.00
1148,-14.152672,59.938931,-65.129771,-0.379639,-0.639404,0.675049,0.00,0.00,0.00
1149,-12.389313,60.320611,-66.816794,-0.386963,-0.636719,0.673340,0.00,0.00,0.00
1150,-9.885496,59.770992,-68.725191,-0.393799,-0.651855,0.677490,0.00,0.00,0.00
1151,-7.870229,59.923664,-70.664122,-0.395020,-0.639160,0.673584,0.00,0.00,0.00
1152,-6.312977,59.282443,-71.732824,-0.381104,-0.645996,0.682617,0.00,0.00,0.00
1153,-4.656489,58.801527,-72.900763,-0.389893,-0.633301,0.676025,0.00,0.00,0.00
1154,-3.206107,57.946565,-73.458015,-0.385742,-0.641846,0.675537,0.00,0.00,0.00
1155,-1.427481,56.045802,-73.236641,-0.402100,-0.626465,0.668213,0.00,0.00,0.00
1156,-0.557252,54.549618,-71.511450,-0.407715,-0.614502,0.663818,0.00,0.00,0.00
1157,-0.038168,51.916031,-68.404580,-0.444336,-0.597656,0.648193,0.00,0.00,0.00
1158,0.251908,48.175573,-64.969466,-0.522217,-0.578857,0.641602,0.00,0.00,0.00
1159,0.549618,42.717557,-61.839695,-0.567627,-0.569336,0.653564,0.00,0.00,0.00
1160,0.633588,35.832061,-57.992366,-0.601074,-0.557617,0.660889,0.00,0.00,0.00
1161,0.725191,28.473282,-52.557252,-0.626709,-0.539551,0.665771,0.00,0.00,0.00
1162,0.824427,20.328244,-47.503817,-0.698975,-0.572998,0.670166,0.00,0.00,0.00
1163,1.694656,10.167939,-42.320611,-0.728027,-0.577637,0.691650,0.00,0.00,0.00
1164,2.076336,1.816794,-38.091603,-0.735596,-0.520020,0.695312,0.00,0.00,0.00
1165,0.541985,-6.961832,-32.000000,-0.684814,-0.447510,0.669434,0.00,0.00,0.00
1166,-2.381679,-13.122137,-24.954198,-0.594727,-0.475586,0.685547,0.00,0.00,0.00
1167,-1.938931,-14.251908,-16.274809,-0.509277,-0.516602,0.697021,0.00,0.00,0.00
1168,-1.091603,-13.824427,-7.664122,-0.471191,-0.485352,0.710449,0.00,0.00,0.00
1169,-0.030534,-11.526718,0.358779,-0.461670,-0.466797,0.713379,0.00,0.00,0.00
1170,0.908397,-9.603053,7.061069,-0.468018,-0.455566,0.718018,0.00,0.00,0.00
1171,1.557252,-8.022901,11.793893,-0.483154,-0.438477,0.719482,0.00,0.00,0.00
1172,2.503817,-7.580153,15.206107,-0.480957,-0.440674,0.718994,0.00,0.00,0.00
1173,3.335878,-7.549618,17.129771,-0.484863,-0.437744,0.720947,0.00,0.00,0.00
1174,4.236641,-7.618321,18.977099,-0.461914,-0.433594,0.715332,0.00,0.00,0.00
1175,5.137405,-7.175573,20.587786,-0.419434,-0.425537,0.717285,0.00,0.00,0.00
1176,6.175573,-5.885496,22.328244,-0.382324,-0.427734,0.731201,0.00,0.00,0.00
1177,7.106870,-4.534351,23.824427,-0.361816,-0.431641,0.751465,0.00,0.00,0.00
1178,8.427481,-3.000000,25.549618,-0.360107,-0.440918,0.741455,0.00,0.00,0.00
1179,9.832061,-2.076336,26.465649,-0.375732,-0.456055,0.755371,0.00,0.00,0.00
1180,11.274809,-2.030534,27.213740,-0.385254,-0.469971,0.754639,0.00,0.00,0.00
1181,13.244275,-2.442748,27.274809,-0.394287,-0.484619,0.755615,0.00,0.00,0.00
1182,15.129771,-2.847328,27.328244,-0.389648,-0.494141,0.756592,0.00,0.00,0.00
1183,16.595420,-2.854962,27.312977,-0.370361,-0.499023,0.743652,0.00,0.00,0.00
1184,17.618321,-2.503817,26.923664,-0.347168,-0.489502,0.737549,0.00,0.00,0.00
1185,18.351145,-1.328244,26.320611,-0.336914,-0.480469,0.730713,0.00,0.00,0.00
1186,18.511450,0.442748,25.755725,-0.316895,-0.467529,0.720703,0.00,0.00,0.00
1187,18.435115,2.847328,25.007634,-0.302979,-0.474365,0.719727,0.00,0.00,0.00
1188,18.641221,5.824427,24.282443,-0.292480,-0.479736,0.723633,0.00,0.00,0.00
1189,18.526718,8.534351,23.458015,-0.280518,-0.487305,0.715820,0.00,0.00,0.00
1190,18.458015,10.908397,22.877863,-0.292969,-0.492188,0.715820,0.00,0.00,0.00
1191,18.076336,13.251908,21.763359,-0.297363,-0.497803,0.708496,0.00,0.00,0.00
1192,18.015267,15.244275,20.351145,-0.310791,-0.520752,0.719482,0.00,0.00,0.00
1193,18.137405,16.725191,19.343511,-0.322754,-0.548096,0.728516,0.00,0.00,0.00
1194,18.679389,17.473282,18.145038,-0.338623,-0.581299,0.737549,0.00,0.00,0.00
1195,19.603053,17.824427,17.351145,-0.350830,-0.608154,0.737549,0.00,0.00,0.00
1196,21.167939,17.381679,16.229008,-0.356445,-0.626221,0.732422,0.00,0.00,0.00
1197,22.480916,17.030534,15.167939,-0.351074,-0.628662,0.734863,0.00,0.00,0.00
1198,23.038168,16.969466,14.259542,-0.343750,-0.612793,0.740479,0.00,0.00,0.00
1199,23.129771,16.778626,12.870229,-0.336182,-0.593750,0.736816,0.00,0.00,0.00
1200,22.320611,16.862595,11.770992,-0.311279,-0.577637,0.731689,0.00,0.00,0.00
1201,21.664122,17.572519,10.702290,-0.298340,-0.573730,0.726807,0.00,0.00,0.00
1202,20.870229,18.450382,9.648855,-0.299561,-0.573975,0.713135,0.00,0.00,0.00
1203,20.015267,19.427481,8.969466,-0.287109,-0.582764,0.726318,0.00,0.00,0.00
1204,19.236641,20.938931,9.053435,-0.274658,-0.594727,0.727539,0.00,0.00,0.00
1205,18.404580,21.900763,9.458015,-0.279785,-0.604980,0.714600,0.00,0.00,0.00
1206,18.061069,22.175573,10.007634,-0.290771,-0.615479,0.726074,0.00,0.00,0.00
1207,17.412214,21.671756,10.167939,-0.318848,-0.626709,0.726807,0.00,0.00,0.00
1208,16.847328,20.786260,10.503817,-0.325928,-0.635010,0.721680,0.00,0.00,0.00
1209,16.381679,19.442748,10.885496,-0.321289,-0.642822,0.718262,0.00,0.00,0.00
1210,15.793893,18.167939,10.732824,-0.314697,-0.645508,0.699219,0.00,0.00,0.00
1211,15.122137,16.824427,10.893130,-0.304199,-0.639404,0.703613,0.00,0.00,0.00
1212,13.519084,15.603053,11.152672,-0.285400,-0.620850,0.689453,0.00,0.00,0.00
1213,11.778626,15.297710,12.038168,-0.253906,-0.605469,0.684082,0.00,0.00,0.00
1214,9.854962,15.167939,13.274809,-0.248291,-0.588379,0.692139,0.00,0.00,0.00
1215,8.213740,14.557252,14.442748,-0.249268,-0.598633,0.695557,0.00,0.00,0.00
1216,6.419847,13.435115,15.908397,-0.266846,-0.623291,0.690430,0.00,0.00,0.00
1217,5.458015,11.267176,17.541985,-0.289307,-0.643799,0.699219,0.00,0.00,0.00
1218,5.022901,8.526718,18.908397,-0.316650,-0.666992,0.695312,0.00,0.00,0.00
1219,5.076336,4.992366,20.091603,-0.320312,-0.673340,0.701660,0.00,0.00,0.00
1220,5.045802,1.251908,20.732824,-0.330078,-0.669434,0.699219,0.00,0.00,0.00
1221,4.778626,-1.175573,21.412214,-0.306396,-0.667725,0.726074,0.00,0.00,0.00
1222,4.786260,-2.152672,22.381679,-0.265869,-0.668945,0.715332,0.00,0.00,0.00
1223,4.854962,-2.244275,23.778626,-0.232178,-0.655518,0.709717,0.00,0.00,0.00
1224,5.076336,-1.557252,24.748092,-0.215088,-0.650391,0.725342,0.00,0.00,0.00
1225,4.938931,-0.335878,25.297710,-0.208008,-0.633545,0.720459,0.00,0.00,0.00
1226,4.847328,0.862595,25.183206,-0.197998,-0.621338,0.732910,0.00,0.00,0.00
1227,4.526718,2.259542,24.885496,-0.195801,-0.618164,0.730469,0.00,0.00,0.00
1228,4.519084,3.458015,24.480916,-0.188721,-0.625977,0.744873,0.00,0.00,0.00
1229,4.854962,4.343511,24.267176,-0.186035,-0.635986,0.736328,0.00,0.00,0.00
1230,5.816794,4.923664,23.885496,-0.188477,-0.659424,0.750977,0.00,0.00,0.00
1231,6.839695,4.770992,23.709924,-0.194092,-0.664795,0.749512,0.00,0.00,0.00
1232,8.099237,4.030534,22.900763,-0.211182,-0.674561,0.752686,0.00,0.00,0.00
1233,9.167939,2.862595,22.000000,-0.199707,-0.676514,0.755371,0.00,0.00,0.00
1234,10.198473,1.595420,20.580153,-0.201660,-0.669189,0.738525,0.00,0.00,0.00
1235,10.564885,0.389313,19.427481,-0.181641,-0.648926,0.739502,0.00,0.00,0.00
1236,10.267176,-0.404580,18.045802,-0.166748,-0.632568,0.730957,0.00,0.00,0.00
1237,9.549618,-0.770992,16.763359,-0.156982,-0.623291,0.727783,0.00,0.00,0.00
1238,8.274809,-1.427481,15.297710,-0.154297,-0.609863,0.722412,0.00,0.00,0.00
1239,6.786260,-1.801527,13.763359,-0.145752,-0.601562,0.714355,0.00,0.00,0.00
1240,4.625954,-1.893130,12.496183,-0.148682,-0.592285,0.704834,0.00,0.00,0.00
1241,3.160305,-2.061069,11.206107,-0.147217,-0.591553,0.697021,0.00,0.00,0.00
1242,0.793893,-2.938931,9.893130,-0.155273,-0.596191,0.708496,0.00,0.00,0.00
1243,-1.450382,-3.786260,8.297710,-0.166748,-0.597168,0.688721,0.00,0.00,0.00
1244,-3.946565,-5.106870,6.801527,-0.170166,-0.596191,0.698730,0.00,0.00,0.00
1245,-6.694656,-6.717557,5.198473,-0.162598,-0.584229,0.688477,0.00,0.00,0.00
1246,-9.725191,-8.801527,3.610687,-0.167480,-0.566406,0.689209,0.00,0.00,0.00
1247,-13.442748,-11.167939,1.847328,-0.175781,-0.561035,0.680908,0.00,0.00,0.00
1248,-16.984733,-13.702290,-0.534351,-0.181152,-0.552490,0.685303,0.00,0.00,0.00
1249,-20.114504,-15.824427,-1.900763,-0.181641,-0.554932,0.686768,0.00,0.00,0.00
1250,-23.725191,-17.977099,-3.740458,-0.164062,-0.560547,0.689209,0.00,0.00,0.00
1251,-26.847328,-19.488550,-5.290076,-0.150391,-0.571045,0.680664,0.00,0.00,0.00
1252,-29.320611,-20.083969,-6.236641,-0.143311,-0.595459,0.710938,0.00,0.00,0.00
1253,-30.931298,-19.961832,-6.312977,-0.150391,-0.655029,0.726318,0.00,0.00,0.00
1254,-30.137405,-19.564885,-5.198473,-0.152100,-0.746826,0.731445,0.00,0.00,0.00
1255,-27.053435,-18.931298,-3.419847,-0.145752,-0.814453,0.754150,0.00,0.00,0.00
1256,-22.931298,-18.198473,-0.511450,-0.138428,-0.843262,0.760498,0.00,0.00,0.00
1257,-18.809160,-16.961832,2.030534,-0.131836,-0.821533,0.760010,0.00,0.00,0.00
1258,-16.221374,-17.160305,2.053435,-0.180908,-0.826660,0.757568,0.00,0.00,0.00
1259,-13.137405,-24.541985,-3.061069,-0.353027,-0.850098,0.775391,0.00,0.00,0.00
1260,-9.847328,-34.534351,-10.641221,-0.347900,-0.841064,0.741943,0.00,0.00,0.00
1261,-6.770992,-39.114504,-15.793893,-0.165039,-0.773682,0.707275,0.00,0.00,0.00
1262,-6.267176,-39.809160,-18.480916,-0.030518,-0.719727,0.706055,0.00,0.00,0.00
1263,-7.503817,-37.816794,-22.000000,0.000977,-0.707275,0.699219,0.00,0.00,0.00
1264,-9.335878,-33.572519,-24.954198,0.030518,-0.728027,0.671875,0.00,0.00,0.00
1265,-11.022901,-30.641221,-28.847328,-0.006104,-0.748779,0.640137,0.00,0.00,0.00
1266,-11.580153,-29.061069,-31.641221,-0.038330,-0.764648,0.628906,0.00,0.00,0.00
1267,-12.015267,-26.847328,-33.877863,-0.041992,-0.810059,0.614990,0.00,0.00,0.00
1268,-10.748092,-23.732824,-31.526718,-0.080322,-0.800049,0.616943,0.00,0.00,0.00
1269,-8.992366,-20.488550,-24.816794,-0.175781,-0.787354,0.646729,0.00,0.00,0.00
1270,-6.610687,-18.671756,-18.122137,-0.313721,-0.754639,0.687256,0.00,0.00,0.00
1271,-4.030534,-17.267176,-14.137405,-0.384033,-0.743896,0.717529,0.00,0.00,0.00
1272,-1.396947,-16.763359,-11.816794,-0.352051,-0.690430,0.744629,0.00,0.00,0.00
1273,0.358779,-15.687023,-10.816794,-0.279785,-0.633545,0.760010,0.00,0.00,0.00
1274,0.893130,-14.564885,-10.587786,-0.235352,-0.569824,0.757324,0.00,0.00,0.00
1275,0.541985,-14.244275,-11.221374,-0.250244,-0.542969,0.760010,0.00,0.00,0.00
1276,-0.312977,-14.709924,-12.396947,-0.292480,-0.536865,0.755371,0.00,0.00,0.00
1277,-1.114504,-15.702290,-13.709924,-0.342773,-0.574707,0.741699,0.00,0.00,0.00
1278,-1.236641,-16.603053,-14.412214,-0.374512,-0.598877,0.738281,0.00,0.00,0.00
1279,-0.610687,-17.603053,-14.740458,-0.383301,-0.625732,0.729248,0.00,0.00,0.00
1280,0.488550,-19.190840,-15.374046,-0.400391,-0.659424,0.710449,0.00,0.00,0.00
1281,1.877863,-18.450382,-14.030534,-0.323975,-0.676270,0.719238,0.00,0.00,0.00
1282,3.610687,-16.900763,-12.564885,-0.288086,-0.645752,0.718994,0.00,0.00,0.00
1283,4.251908,-16.480916,-11.900763,-0.261719,-0.626953,0.735352,0.00,0.00,0.00
1284,4.793893,-15.603053,-11.122137,-0.256104,-0.614502,0.735596,0.00,0.00,0.00
1285,5.290076,-15.083969,-10.389313,-0.260010,-0.615234,0.742188,0.00,0.00,0.00
1286,5.610687,-14.137405,-9.709924,-0.276611,-0.613525,0.749512,0.00,0.00,0.00
1287,5.473282,-13.786260,-9.320611,-0.271240,-0.606201,0.738281,0.00,0.00,0.00
1288,5.435115,-13.778626,-9.305344,-0.275391,-0.597168,0.738770,0.00,0.00,0.00
1289,5.480916,-13.755725,-9.351145,-0.260254,-0.593750,0.745117,0.00,0.00,0.00
1290,5.618321,-13.343511,-8.954198,-0.252197,-0.604980,0.735107,0.00,0.00,0.00
1291,5.832061,-12.664122,-8.320611,-0.253662,-0.615479,0.745850,0.00,0.00,0.00
1292,6.221374,-11.908397,-7.709924,-0.233643,-0.616699,0.738281,0.00,0.00,0.00
1293,6.595420,-11.129771,-6.740458,-0.228027,-0.612061,0.742188,0.00,0.00,0.00
1294,6.916031,-10.511450,-6.015267,-0.237061,-0.601807,0.743164,0.00,0.00,0.00
1295,6.770992,-10.007634,-5.488550,-0.241699,-0.594238,0.747314,0.00,0.00,0.00
1296,6.816794,-9.083969,-5.198473,-0.246094,-0.595947,0.753906,0.00,0.00,0.00
1297,6.763359,-8.717557,-4.717557,-0.242676,-0.594971,0.742676,0.00,0.00,0.00
1298,6.786260,-8.351145,-4.610687,-0.241211,-0.596680,0.748047,0.00,0.00,0.00
1299,6.664122,-7.396947,-4.053435,-0.238281,-0.591553,0.761230,0.00,0.00,0.00
1300,6.587786,-7.015267,-3.740458,-0.246094,-0.589844,0.741211,0.00,0.00,0.00
1301,6.206107,-6.496183,-3.748092,-0.250488,-0.588379,0.748779,0.00,0.00,0.00
1302,5.931298,-6.083969,-3.305344,-0.249512,-0.583496,0.754639,0.00,0.00,0.00
1303,5.557252,-5.702290,-3.045802,-0.258789,-0.591064,0.751709,0.00,0.00,0.00
1304,5.290076,-5.580153,-2.923664,-0.252930,-0.590820,0.750488,0.00,0.00,0.00
1305,4.961832,-5.221374,-2.793893,-0.252930,-0.590820,0.756104,0.00,0.00,0.00
1306,5.045802,-4.763359,-2.687023,-0.253662,-0.587158,0.751709,0.00,0.00,0.00
1307,4.526718,-4.770992,-2.564885,-0.254883,-0.586914,0.753906,0.00,0.00,0.00
1308,4.320611,-4.534351,-2.564885,-0.258789,-0.597168,0.754150,0.00,0.00,0.00
1309,4.175573,-4.305344,-2.396947,-0.255859,-0.593018,0.749268,0.00,0.00,0.00
1310,3.923664,-4.328244,-2.496183,-0.260498,-0.591797,0.747803,0.00,0.00,0.00
1311,3.641221,-4.396947,-2.450382,-0.258545,-0.589844,0.754639,0.00,0.00,0.00
1312,3.748092,-4.236641,-2.580153,-0.266602,-0.584473,0.749756,0.00,0.00,0.00
1313,3.511450,-4.496183,-2.877863,-0.259521,-0.583496,0.750000,0.00,0.00,0.00
1314,3.496183,-4.473282,-2.854962,-0.263428,-0.586426,0.752441,0.00,0.00,0.00
1315,3.213740,-4.480916,-2.862595,-0.260498,-0.583984,0.749756,0.00,0.00,0.00
1316,2.816794,-4.290076,-2.946565,-0.260498,-0.593506,0.746338,0.00,0.00,0.00
1317,2.671756,-4.244275,-2.847328,-0.256592,-0.589355,0.759033,0.00,0.00,0.00
1318,2.641221,-3.870229,-2.396947,-0.246582,-0.593506,0.756104,0.00,0.00,0.00
1319,2.511450,-3.679389,-2.442748,-0.238525,-0.590576,0.753906,0.00,0.00,0.00
1320,2.351145,-3.442748,-2.259542,-0.242920,-0.587646,0.761230,0.00,0.00,0.00
1321,2.022901,-3.091603,-2.083969,-0.247070,-0.584717,0.755859,0.00,0.00,0.00
1322,1.877863,-2.832061,-1.938931,-0.238281,-0.586914,0.760010,0.00,0.00,0.00
1323,1.770992,-2.526718,-1.648855,-0.245850,-0.589355,0.750488,0.00,0.00,0.00
1324,1.465649,-2.213740,-1.412214,-0.240479,-0.588623,0.756592,0.00,0.00,0.00
1325,1.320611,-2.030534,-1.259542,-0.247314,-0.583008,0.756836,0.00,0.00,0.00
1326,1.267176,-1.641221,-0.969466,-0.238281,-0.586914,0.751221,0.00,0.00,0.00
1327,1.083969,-1.290076,-0.900763,-0.237793,-0.587891,0.755127,0.00,0.00,0.00
1328,0.992366,-1.068702,-0.595420,-0.240234,-0.589111,0.745850,0.00,0.00,0.00
1329,1.038168,-0.816794,-0.435115,-0.239990,-0.584961,0.755127,0.00,0.00,0.00
1330,0.938931,-0.732824,-0.290076,-0.247803,-0.585938,0.752930,0.00,0.00,0.00
1331,0.854962,-0.549618,-0.259542,-0.247314,-0.582275,0.752930,0.00,0.00,0.00
1332,0.938931,-0.603053,-0.358779,-0.248535,-0.580322,0.752686,0.00,0.00,0.00
1333,0.877863,-0.625954,-0.297710,-0.250488,-0.584473,0.761230,0.00,0.00,0.00
1334,0.778626,-0.839695,-0.259542,-0.250977,-0.587158,0.747803,0.00,0.00,0.00
1335,0.847328,-0.702290,-0.251908,-0.261475,-0.580078,0.750732,0.00,0.00,0.00
1336,0.977099,-0.908397,-0.419847,-0.255859,-0.582031,0.744385,0.00,0.00,0.00
1337,1.114504,-0.877863,-0.427481,-0.257080,-0.581299,0.748779,0.00,0.00,0.00
1338,0.885496,-1.129771,-0.633588,-0.266113,-0.583008,0.747070,0.00,0.00,0.00
1339,0.900763,-1.358779,-0.984733,-0.262207,-0.583984,0.748291,0.00,0.00,0.00
1340,1.015267,-1.358779,-0.961832,-0.255615,-0.580322,0.740234,0.00,0.00,0.00
1341,1.045802,-1.450382,-1.122137,-0.259521,-0.584717,0.737305,0.00,0.00,0.00
1342,1.145038,-1.610687,-1.366412,-0.262695,-0.586670,0.757812,0.00,0.00,0.00
1343,1.106870,-1.885496,-1.488550,-0.262695,-0.581299,0.744629,0.00,0.00,0.00
1344,1.221374,-2.290076,-1.717557,-0.266846,-0.580322,0.745117,0.00,0.00,0.00
1345,1.297710,-2.610687,-1.984733,-0.265381,-0.579834,0.755615,0.00,0.00,0.00
1346,1.381679,-2.893130,-2.328244,-0.258057,-0.586670,0.747803,0.00,0.00,0.00
1347,1.564885,-2.977099,-2.458015,-0.252197,-0.581543,0.753174,0.00,0.00,0.00
1348,1.679389,-3.099237,-2.480916,-0.262695,-0.584473,0.749756,0.00,0.00,0.00
1349,1.862595,-3.282443,-2.641221,-0.255371,-0.590088,0.750000,0.00,0.00,0.00
1350,2.183206,-3.251908,-2.404580,-0.249756,-0.585938,0.742920,0.00,0.00,0.00
1351,2.022901,-3.297710,-2.557252,-0.253418,-0.584961,0.753174,0.00,0.00,0.00
1352,2.190840,-3.297710,-2.580153,-0.245850,-0.587891,0.749023,0.00,0.00,0.00
1353,2.236641,-3.099237,-2.427481,-0.250488,-0.582520,0.751465,0.00,0.00,0.00
1354,2.137405,-2.992366,-2.061069,-0.250244,-0.586426,0.760254,0.00,0.00,0.00
1355,2.381679,-2.664122,-2.152672,-0.251221,-0.588379,0.750000,0.00,0.00,0.00
1356,1.969466,-2.893130,-2.030534,-0.248779,-0.582764,0.751953,0.00,0.00,0.00
1357,2.076336,-2.748092,-1.778626,-0.242920,-0.586914,0.757324,0.00,0.00,0.00
1358,2.091603,-2.610687,-1.839695,-0.239258,-0.584717,0.752686,0.00,0.00,0.00
1359,2.038168,-2.381679,-1.694656,-0.240723,-0.591553,0.755127,0.00,0.00,0.00
1360,2.038168,-2.099237,-1.511450,-0.238037,-0.589844,0.753662,0.00,0.00,0.00
1361,2.053435,-2.076336,-1.541985,-0.239746,-0.584717,0.747559,0.00,0.00,0.00
1362,2.114504,-2.068702,-1.328244,-0.235596,-0.586182,0.753662,0.00,0.00,0.00
1363,2.343511,-2.229008,-1.389313,-0.244141,-0.585693,0.750488,0.00,0.00,0.00
1364,2.503817,-2.236641,-1.519084,-0.251953,-0.582520,0.752930,0.00,0.00,0.00
1365,2.465649,-2.297710,-1.549618,-0.251221,-0.583008,0.761230,0.00,0.00,0.00
1366,2.251908,-2.229008,-1.595420,-0.249023,-0.580078,0.762695,0.00,0.00,0.00
1367,2.328244,-2.190840,-1.519084,-0.241211,-0.583496,0.758301,0.00,0.00,0.00
1368,2.267176,-2.045802,-1.435115,-0.239014,-0.589355,0.754150,0.00,0.00,0.00
1369,2.320611,-1.931298,-1.229008,-0.244141,-0.581787,0.752197,0.00,0.00,0.00
1370,2.267176,-2.038168,-1.427481,-0.243652,-0.580322,0.757568,0.00,0.00,0.00
1371,2.312977,-2.007634,-1.198473,-0.246826,-0.574463,0.758057,0.00,0.00,0.00
1372,2.175573,-2.160305,-1.381679,-0.242432,-0.577637,0.758789,0.00,0.00,0.00
1373,2.305344,-2.061069,-1.198473,-0.248535,-0.582520,0.758789,0.00,0.00,0.00
1374,2.274809,-2.083969,-1.282443,-0.239990,-0.580811,0.756348,0.00,0.00,0.00
1375,2.122137,-2.076336,-1.412214,-0.240479,-0.579834,0.759033,0.00,0.00,0.00
1376,2.053435,-1.969466,-1.160305,-0.241943,-0.575684,0.765381,0.00,0.00,0.00
1377,2.343511,-1.969466,-1.259542,-0.244141,-0.580078,0.764160,0.00,0.00,0.00
1378,1.946565,-1.931298,-1.282443,-0.246338,-0.579346,0.768066,0.00,0.00,0.00
1379,2.106870,-1.839695,-1.091603,-0.242676,-0.581787,0.759277,0.00,0.00,0.00
1380,2.167939,-1.984733,-1.251908,-0.245850,-0.583496,0.749756,0.00,0.00,0.00
1381,2.145038,-1.816794,-1.320611,-0.249512,-0.581055,0.762695,0.00,0.00,0.00
1382,2.022901,-1.946565,-1.427481,-0.247803,-0.574463,0.765869,0.00,0.00,0.00
1383,1.763359,-1.595420,-1.351145,-0.239990,-0.578369,0.771484,0.00,0.00,0.00
1384,1.328244,-1.259542,-1.083969,-0.232422,-0.578125,0.768555,0.00,0.00,0.00
1385,0.961832,-0.900763,-0.801527,-0.226318,-0.584473,0.781250,0.00,0.00,0.00
1386,0.564885,-0.290076,-0.534351,-0.225098,-0.580811,0.768066,0.00,0.00,0.00
1387,0.396947,0.244275,-0.091603,-0.217773,-0.581787,0.761230,0.00,0.00,0.00
1388,0.198473,0.312977,0.045802,-0.227295,-0.573730,0.765381,0.00,0.00,0.00
1389,0.122137,0.404580,0.152672,-0.235840,-0.578857,0.759277,0.00,0.00,0.00
1390,-0.068702,0.603053,0.297710,-0.233643,-0.574707,0.760254,0.00,0.00,0.00
1391,-0.083969,0.687023,0.419847,-0.237549,-0.582031,0.763428,0.00,0.00,0.00
1392,-0.351145,0.816794,0.450382,-0.239258,-0.579590,0.761230,0.00,0.00,0.00
1393,-0.122137,0.656489,0.427481,-0.241943,-0.582031,0.755127,0.00,0.00,0.00
1394,-0.129771,0.763359,0.229008,-0.241699,-0.586914,0.752197,0.00,0.00,0.00
1395,-0.160305,0.526718,0.320611,-0.245361,-0.577881,0.755859,0.00,0.00,0.00
1396,-0.450382,0.694656,0.229008,-0.245850,-0.576416,0.760742,0.00,0.00,0.00
1397,-0.290076,0.610687,0.282443,-0.248779,-0.581299,0.760010,0.00,0.00,0.00
1398,-0.328244,0.549618,0.374046,-0.241699,-0.580566,0.749512,0.00,0.00,0.00
1399,-0.167939,0.374046,0.122137,-0.247559,-0.580078,0.759521,0.00,0.00,0.00
1400,-0.106870,0.152672,0.053435,-0.245850,-0.582031,0.759521,0.00,0.00,0.00
1401,0.129771,0.114504,-0.381679,-0.252197,-0.578369,0.747070,0.00,0.00,0.00
1402,0.160305,-0.167939,-0.259542,-0.248291,-0.579102,0.750977,0.00,0.00,0.00
1403,0.274809,-0.366412,-0.572519,-0.253906,-0.581543,0.750000,0.00,0.00,0.00
1404,0.328244,-0.580153,-0.793893,-0.250000,-0.576904,0.757080,0.00,0.00,0.00
1405,0.496183,-0.809160,-0.923664,-0.252441,-0.579590,0.756592,0.00,0.00,0.00
1406,0.702290,-1.099237,-0.923664,-0.245605,-0.573975,0.757324,0.00,0.00,0.00
1407,0.580153,-0.992366,-1.068702,-0.248047,-0.579590,0.754883,0.00,0.00,0.00
1408,0.801527,-1.145038,-1.038168,-0.243652,-0.579834,0.755371,0.00,0.00,0.00
1409,0.480916,-1.244275,-1.213740,-0.236328,-0.578613,0.760986,0.00,0.00,0.00
1410,0.625954,-0.893130,-1.022901,-0.240234,-0.574707,0.759277,0.00,0.00,0.00
1411,0.671756,-0.931298,-1.022901,-0.239258,-0.581055,0.761475,0.00,0.00,0.00
1412,0.534351,-0.648855,-1.106870,-0.239014,-0.582764,0.753906,0.00,0.00,0.00
1413,0.343511,-0.450382,-0.694656,-0.238037,-0.580566,0.762451,0.00,0.00,0.00
1414,0.251908,-0.480916,-0.763359,-0.240723,-0.583008,0.761230,0.00,0.00,0.00
1415,0.229008,-0.580153,-0.725191,-0.242432,-0.577881,0.760498,0.00,0.00,0.00
1416,0.099237,-0.572519,-0.717557,-0.239990,-0.580811,0.757324,0.00,0.00,0.00
1417,0.229008,-0.625954,-0.732824,-0.245361,-0.578369,0.751221,0.00,0.00,0.00
1418,0.274809,-0.656489,-0.954198,-0.242188,-0.577637,0.762207,0.00,0.00,0.00
1419,0.488550,-1.000000,-1.045802,-0.243896,-0.569336,0.762695,0.00,0.00,0.00
1420,0.778626,-1.320611,-1.251908,-0.253662,-0.584717,0.757080,0.00,0.00,0.00
1421,0.885496,-1.587786,-1.587786,-0.251465,-0.578125,0.759033,0.00,0.00,0.00
1422,1.061069,-1.877863,-1.755725,-0.248047,-0.578369,0.750488,0.00,0.00,0.00
1423,1.221374,-2.038168,-1.923664,-0.240234,-0.584961,0.761230,0.00,0.00,0.00
1424,1.335878,-2.122137,-1.885496,-0.240967,-0.575195,0.756592,0.00,0.00,0.00
1425,1.351145,-2.190840,-1.992366,-0.240234,-0.578857,0.752930,0.00,0.00,0.00
1426,1.404580,-2.045802,-1.946565,-0.232178,-0.583496,0.761719,0.00,0.00,0.00
1427,1.343511,-2.221374,-1.763359,-0.239502,-0.578369,0.755127,0.00,0.00,0.00
1428,1.213740,-1.893130,-1.671756,-0.233154,-0.583984,0.766602,0.00,0.00,0.00
1429,1.251908,-1.931298,-1.671756,-0.232910,-0.579102,0.761719,0.00,0.00,0.00
1430,1.412214,-1.770992,-1.534351,-0.235596,-0.578369,0.758301,0.00,0.00,0.00
1431,1.099237,-1.641221,-1.480916,-0.232666,-0.578857,0.758301,0.00,0.00,0.00
1432,1.030534,-1.366412,-1.312977,-0.229004,-0.584717,0.760254,0.00,0.00,0.00
1433,1.007634,-1.206107,-1.038168,-0.233398,-0.575928,0.768066,0.00,0.00,0.00
1434,0.755725,-1.015267,-0.893130,-0.232422,-0.579346,0.776611,0.00,0.00,0.00
1435,0.541985,-0.748092,-0.832061,-0.228271,-0.578857,0.752686,0.00,0.00,0.00
1436,0.450382,-0.427481,-0.687023,-0.228271,-0.579346,0.764160,0.00,0.00,0.00
1437,0.274809,-0.145038,-0.511450,-0.229492,-0.582520,0.768555,0.00,0.00,0.00
1438,0.213740,0.106870,-0.427481,-0.228516,-0.581299,0.774170,0.00,0.00,0.00
1439,0.000000,0.099237,-0.282443,-0.236816,-0.583252,0.755127,0.00,0.00,0.00
1440,0.167939,-0.106870,-0.274809,-0.242920,-0.582764,0.767090,0.00,0.00,0.00
1441,0.175573,-0.274809,-0.473282,-0.245850,-0.580566,0.757812,0.00,0.00,0.00
1442,0.251908,-0.404580,-0.549618,-0.244873,-0.580322,0.759766,0.00,0.00,0.00
1443,0.366412,-0.572519,-0.679389,-0.235840,-0.583740,0.766602,0.00,0.00,0.00
1444,0.465649,-0.725191,-0.740458,-0.246826,-0.580811,0.757812,0.00,0.00,0.00
1445,0.312977,-0.740458,-0.824427,-0.245605,-0.581299,0.754395,0.00,0.00,0.00
1446,0.396947,-0.595420,-1.038168,-0.239502,-0.577637,0.755615,0.00,0.00,0.00
1447,0.206107,-0.618321,-0.793893,-0.232422,-0.579346,0.763184,0.00,0.00,0.00
1448,0.366412,-0.671756,-0.793893,-0.235596,-0.573975,0.760254,0.00,0.00,0.00
1449,0.236641,-0.541985,-0.839695,-0.236816,-0.577881,0.760010,0.00,0.00,0.00
1450,0.183206,-0.587786,-0.938931,-0.238281,-0.574463,0.762939,0.00,0.00,0.00
1451,0.244275,-0.519084,-0.748092,-0.231689,-0.576660,0.764160,0.00,0.00,0.00
1452,0.000000,-0.549618,-0.809160,-0.231689,-0.577393,0.762939,0.00,0.00,0.00
1453,0.068702,-0.541985,-0.870229,-0.234619,-0.579102,0.761475,0.00,0.00,0.00
1454,0.068702,-0.488550,-0.763359,-0.239502,-0.579834,0.761963,0.00,0.00,0.00
1455,-0.022901,-0.549618,-0.816794,-0.235352,-0.577393,0.760986,0.00,0.00,0.00
1456,0.145038,-0.625954,-0.839695,-0.240479,-0.579346,0.759521,0.00,0.00,0.00
1457,0.106870,-0.534351,-0.732824,-0.239990,-0.575928,0.764648,0.00,0.00,0.00
1458,0.061069,-0.732824,-0.725191,-0.235596,-0.579834,0.764893,0.00,0.00,0.00
1459,-0.045802,-0.412214,-0.717557,-0.245605,-0.577637,0.767578,0.00,0.00,0.00
1460,-0.091603,-0.687023,-0.900763,-0.241943,-0.584229,0.756836,0.00,0.00,0.00
1461,-0.083969,-0.732824,-0.893130,-0.235840,-0.579346,0.763916,0.00,0.00,0.00
1462,-0.030534,-0.946565,-1.045802,-0.239014,-0.582275,0.758301,0.00,0.00,0.00
1463,-0.114504,-0.801527,-1.190840,-0.233887,-0.576660,0.758789,0.00,0.00,0.00
1464,-0.099237,-1.221374,-1.267176,-0.244629,-0.577637,0.765381,0.00,0.00,0.00
1465,0.198473,-1.290076,-1.290076,-0.239258,-0.579590,0.760986,0.00,0.00,0.00
1466,0.198473,-1.442748,-1.358779,-0.239258,-0.577393,0.763184,0.00,0.00,0.00
1467,0.282443,-1.442748,-1.435115,-0.243408,-0.579590,0.759277,0.00,0.00,0.00
1468,0.374046,-1.488550,-1.381679,-0.239746,-0.573486,0.755127,0.00,0.00,0.00
1469,0.396947,-1.580153,-1.549618,-0.237061,-0.582764,0.753174,0.00,0.00,0.00
1470,0.282443,-1.580153,-1.435115,-0.233643,-0.580811,0.766602,0.00,0.00,0.00
1471,0.061069,-1.473282,-1.335878,-0.221924,-0.581055,0.757812,0.00,0.00,0.00
1472,0.496183,-1.488550,-1.328244,-0.230713,-0.582275,0.759277,0.00,0.00,0.00
1473,0.122137,-1.343511,-1.229008,-0.233643,-0.577393,0.769531,0.00,0.00,0.00
1474,0.068702,-1.206107,-1.267176,-0.234863,-0.575195,0.760742,0.00,0.00,0.00
1475,0.152672,-1.213740,-1.175573,-0.228271,-0.580078,0.764404,0.00,0.00,0.00
1476,0.206107,-1.259542,-0.969466,-0.228271,-0.582764,0.767822,0.00,0.00,0.00
1477,0.160305,-1.221374,-0.870229,-0.235107,-0.589111,0.760254,0.00,0.00,0.00
1478,0.160305,-1.068702,-0.839695,-0.241211,-0.576416,0.760254,0.00,0.00,0.00
1479,0.198473,-1.221374,-1.083969,-0.239258,-0.580811,0.756836,0.00,0.00,0.00
1480,0.259542,-0.977099,-0.969466,-0.232666,-0.580566,0.770996,0.00,0.00,0.00
1481,0.190840,-1.007634,-0.824427,-0.231934,-0.578369,0.768066,0.00,0.00,0.00
1482,0.229008,-1.076336,-0.725191,-0.232178,-0.578613,0.770264,0.00,0.00,0.00
1483,0.297710,-1.000000,-1.022901,-0.234863,-0.577881,0.770264,0.00,0.00,0.00
1484,0.152672,-0.938931,-0.809160,-0.232910,-0.579102,0.771973,0.00,0.00,0.00
1485,0.137405,-0.931298,-0.770992,-0.229248,-0.577637,0.762695,0.00,0.00,0.00
1486,0.045802,-0.847328,-0.564885,-0.229736,-0.580322,0.770020,0.00,0.00,0.00
1487,0.175573,-0.587786,-0.541985,-0.226318,-0.580322,0.761230,0.00,0.00,0.00
1488,0.061069,-0.412214,-0.618321,-0.229980,-0.583008,0.758545,0.00,0.00,0.00
1489,0.106870,-0.435115,-0.587786,-0.214600,-0.577148,0.765625,0.00,0.00,0.00
1490,0.038168,-0.465649,-0.335878,-0.227539,-0.578857,0.766113,0.00,0.00,0.00
1491,0.053435,-0.312977,-0.236641,-0.235107,-0.579834,0.757080,0.00,0.00,0.00
1492,0.236641,-0.328244,-0.312977,-0.229248,-0.577881,0.774414,0.00,0.00,0.00
1493,0.312977,-0.389313,-0.366412,-0.225098,-0.578857,0.764893,0.00,0.00,0.00
1494,0.328244,-0.404580,-0.236641,-0.232666,-0.579590,0.757324,0.00,0.00,0.00
1495,0.374046,-0.381679,-0.358779,-0.234131,-0.585205,0.757324,0.00,0.00,0.00
1496,0.312977,-0.274809,-0.152672,-0.232422,-0.575195,0.760986,0.00,0.00,0.00
1497,0.251908,-0.198473,-0.267176,-0.233643,-0.576904,0.764404,0.00,0.00,0.00
1498,0.297710,-0.083969,-0.175573,-0.222900,-0.579590,0.765137,0.00,0.00,0.00
1499,0.282443,-0.114504,-0.122137,-0.228271,-0.578613,0.773193,0.00,0.00,0.00
1500,0.221374,-0.038168,-0.152672,-0.228760,-0.580322,0.767334,0.00,0.00,0.00
1501,0.175573,-0.083969,-0.129771,-0.234619,-0.581787,0.765137,0.00,0.00,0.00
1502,-0.061069,0.251908,0.083969,-0.231201,-0.576904,0.769043,0.00,0.00,0.00
1503,-0.045802,0.190840,0.099237,-0.228760,-0.576904,0.766846,0.00,0.00,0.00
1504,-0.022901,0.145038,0.137405,-0.233398,-0.577393,0.765869,0.00,0.00,0.00
1505,0.000000,0.343511,0.129771,-0.236328,-0.582520,0.771484,0.00,0.00,0.00
1506,-0.122137,0.351145,0.007634,-0.233643,-0.575195,0.766602,0.00,0.00,0.00
1507,-0.106870,0.312977,-0.091603,-0.238037,-0.577637,0.760986,0.00,0.00,0.00
1508,0.015267,0.213740,0.053435,-0.232422,-0.580322,0.764893,0.00,0.00,0.00
1509,-0.305344,0.312977,-0.099237,-0.228760,-0.585205,0.765869,0.00,0.00,0.00
1510,-0.183206,0.198473,0.030534,-0.232666,-0.573486,0.767822,0.00,0.00,0.00
1511,-0.442748,0.351145,0.122137,-0.231689,-0.576172,0.760010,0.00,0.00,0.00
1512,-0.595420,0.488550,0.145038,-0.233154,-0.575439,0.766357,0.00,0.00,0.00
1513,-0.541985,0.496183,0.160305,-0.229980,-0.579346,0.759766,0.00,0.00,0.00
1514,-0.641221,0.435115,0.167939,-0.221680,-0.577393,0.765137,0.00,0.00,0.00
1515,-0.564885,0.610687,0.206107,-0.229492,-0.570068,0.762451,0.00,0.00,0.00
1516,-0.740458,0.679389,0.229008,-0.228760,-0.574707,0.759033,0.00,0.00,0.00
1517,-0.687023,0.534351,0.290076,-0.235352,-0.580811,0.766113,0.00,0.00,0.00
1518,-0.458015,0.572519,0.259542,-0.229248,-0.571289,0.762939,0.00,0.00,0.00
1519,-0.725191,0.412214,0.045802,-0.238037,-0.578857,0.762939,0.00,0.00,0.00
1520,-0.564885,0.541985,0.312977,-0.234375,-0.582520,0.765137,0.00,0.00,0.00
1521,-0.511450,0.328244,0.213740,-0.224609,-0.576904,0.763916,0.00,0.00,0.00
1522,-0.580153,0.320611,0.274809,-0.234131,-0.577881,0.762695,0.00,0.00,0.00
1523,-0.572519,0.396947,0.259542,-0.231445,-0.578369,0.755371,0.00,0.00,0.00
1524,-0.595420,0.335878,0.190840,-0.230225,-0.581787,0.757812,0.00,0.00,0.00
1525,-0.541985,0.145038,0.259542,-0.231689,-0.578369,0.761230,0.00,0.00,0.00
1526,-0.526718,0.442748,0.122137,-0.233398,-0.579102,0.760742,0.00,0.00,0.00
1527,-0.465649,0.480916,0.152672,-0.234619,-0.580811,0.759033,0.00,0.00,0.00
1528,-0.450382,0.412214,0.083969,-0.236816,-0.575195,0.762939,0.00,0.00,0.00
1529,-0.648855,0.465649,0.114504,-0.234131,-0.580811,0.764893,0.00,0.00,0.00
1530,-0.687023,0.458015,0.167939,-0.232910,-0.573975,0.760010,0.00,0.00,0.00
1531,-0.587786,0.366412,0.267176,-0.234375,-0.583496,0.765869,0.00,0.00,0.00
1532,-0.755725,0.488550,0.167939,-0.237549,-0.580322,0.764893,0.00,0.00,0.00
1533,-0.564885,0.519084,0.236641,-0.240967,-0.582031,0.758057,0.00,0.00,0.00
1534,-0.465649,0.519084,0.312977,-0.239990,-0.580811,0.762451,0.00,0.00,0.00
1535,-0.496183,0.312977,0.030534,-0.236816,-0.579102,0.771240,0.00,0.00,0.00
1536,-0.320611,0.175573,0.145038,-0.240723,-0.579834,0.755127,0.00,0.00,0.00
1537,-0.396947,0.167939,0.106870,-0.239258,-0.578369,0.758789,0.00,0.00,0.00
1538,-0.282443,0.152672,0.015267,-0.240234,-0.579590,0.764893,0.00,0.00,0.00
1539,-0.267176,0.068702,-0.045802,-0.245361,-0.580566,0.759766,0.00,0.00,0.00
1540,-0.183206,0.290076,-0.167939,-0.237549,-0.579834,0.768311,0.00,0.00,0.00
1541,-0.061069,-0.030534,-0.221374,-0.235107,-0.582031,0.759033,0.00,0.00,0.00
1542,0.152672,-0.175573,-0.152672,-0.236572,-0.580078,0.759277,0.00,0.00,0.00
1543,0.038168,-0.160305,-0.091603,-0.233887,-0.579346,0.762939,0.00,0.00,0.00
