Packet number,Gyroscope X (deg/s),Gyroscope Y (deg/s),Gyroscope Z (deg/s),Accelerometer X (g),Accelerometer Y (g),Accelerometer Z (g),Magnetometer X (G),Magnetometer Y (G),Magnetometer Z (G)
1,-0.022901,-0.007634,0.068702,-0.285645,-0.571289,0.756348,0.00,0.00,0.00
2,-0.015267,0.045802,-0.076336,-0.294678,-0.567139,0.764160,0.00,0.00,0.00
3,-0.099237,0.000000,-0.152672,-0.288330,-0.564941,0.755371,0.00,0.00,0.00
4,-0.099237,0.053435,-0.030534,-0.290527,-0.569824,0.757080,0.00,0.00,0.00
5,0.038168,0.061069,-0.160305,-0.287109,-0.567871,0.753174,0.00,0.00,0.00
6,0.106870,0.091603,-0.053435,-0.293945,-0.566406,0.753418,0.00,0.00,0.00
7,0.045802,0.160305,-0.129771,-0.287598,-0.558594,0.760986,0.00,0.00,0.00
8,-0.106870,0.053435,0.038168,-0.285400,-0.564697,0.759521,0.00,0.00,0.00
9,0.152672,0.152672,-0.053435,-0.295410,-0.563721,0.747559,0.00,0.00,0.00
10,0.068702,0.007634,-0.099237,-0.291992,-0.568604,0.764160,0.00,0.00,0.00
11,0.007634,-0.068702,-0.099237,-0.292480,-0.564453,0.763184,0.00,0.00,0.00
12,-0.099237,0.083969,-0.221374,-0.288330,-0.566650,0.762939,0.00,0.00,0.00
13,0.152672,-0.076336,-0.198473,-0.287109,-0.566406,0.760742,0.00,0.00,0.00
14,0.183206,-0.099237,-0.229008,-0.288818,-0.562988,0.762939,0.00,0.00,0.00
15,0.099237,-0.190840,-0.183206,-0.288086,-0.564453,0.752441,0.00,0.00,0.00
16,0.030534,-0.068702,-0.167939,-0.285156,-0.563232,0.759277,0.00,0.00,0.00
17,0.122137,-0.106870,-0.099237,-0.288574,-0.563965,0.756836,0.00,0.00,0.00
18,0.045802,-0.213740,-0.305344,-0.284912,-0.568604,0.752930,0.00,0.00,0.00
19,0.045802,-0.183206,-0.229008,-0.288574,-0.564697,0.763184,0.00,0.00,0.00
20,0.122137,-0.244275,-0.183206,-0.289062,-0.571533,0.758057,0.00,0.00,0.00
21,0.099237,-0.152672,-0.305344,-0.290771,-0.564209,0.758057,0.00,0.00,0.00
22,0.167939,-0.213740,-0.175573,-0.292480,-0.563232,0.754395,0.00,0.00,0.00
23,0.122137,-0.236641,-0.312977,-0.287354,-0.566162,0.761719,0.00,0.00,0.00
24,0.145038,-0.213740,-0.244275,-0.290283,-0.568848,0.758789,0.00,0.00,0.00
25,-0.038168,-0.160305,-0.290076,-0.286377,-0.564697,0.757080,0.00,0.00,0.00
26,0.221374,-0.236641,-0.328244,-0.296631,-0.564697,0.747803,0.00,0.00,0.00
27,0.076336,-0.152672,-0.435115,-0.284668,-0.567383,0.754150,0.00,0.00,0.00
28,0.053435,-0.122137,-0.206107,-0.284912,-0.569336,0.754150,0.00,0.00,0.00
29,-0.053435,-0.137405,-0.244275,-0.294189,-0.566895,0.750977,0.00,0.00,0.00
30,0.213740,-0.129771,-0.236641,-0.290771,-0.568604,0.760010,0.00,0.00,0.00
31,0.145038,-0.083969,-0.251908,-0.286621,-0.565186,0.760254,0.00,0.00,0.00
32,0.167939,-0.236641,-0.129771,-0.287598,-0.566895,0.759521,0.00,0.00,0.00
33,0.145038,-0.137405,-0.236641,-0.281982,-0.565918,0.757324,0.00,0.00,0.00
34,0.198473,-0.122137,-0.328244,-0.289062,-0.563721,0.760986,0.00,0.00,0.00
35,0.091603,-0.152672,-0.312977,-0.284912,-0.566895,0.753174,0.00,0.00,0.00
36,-0.038168,-0.152672,-0.206107,-0.287842,-0.567383,0.751709,0.00,0.00,0.00
37,-0.015267,-0.091603,-0.351145,-0.288330,-0.560791,0.759277,0.00,0.00,0.00
38,-0.022901,-0.068702,-0.335878,-0.290039,-0.569092,0.750244,0.00,0.00,0.00
39,-0.061069,0.061069,-0.206107,-0.285889,-0.565186,0.754883,0.00,0.00,0.00
40,0.038168,0.076336,-0.198473,-0.287109,-0.571045,0.752686,0.00,0.00,0.00
41,0.053435,0.022901,-0.007634,-0.289551,-0.566895,0.753418,0.00,0.00,0.00
42,-0.083969,0.114504,-0.030534,-0.289551,-0.568359,0.742676,0.00,0.00,0.00
43,-0.030534,0.091603,-0.244275,-0.292236,-0.562256,0.756104,0.00,0.00,0.00
44,-0.068702,0.022901,-0.015267,-0.291992,-0.566162,0.763184,0.00,0.00,0.00
45,-0.007634,-0.061069,-0.221374,-0.283447,-0.564209,0.754150,0.00,0.00,0.00
46,-0.068702,0.091603,-0.236641,-0.289551,-0.564209,0.750000,0.00,0.00,0.00
47,-0.022901,-0.076336,-0.251908,-0.288330,-0.562988,0.753662,0.00,0.00,0.00
48,0.129771,-0.068702,-0.145038,-0.291016,-0.562500,0.754150,0.00,0.00,0.00
49,-0.007634,-0.045802,-0.251908,-0.292480,-0.563721,0.749268,0.00,0.00,0.00
50,-0.106870,0.000000,-0.328244,-0.288086,-0.565674,0.755615,0.00,0.00,0.00
51,-0.061069,-0.137405,-0.091603,-0.289795,-0.571289,0.757080,0.00,0.00,0.00
52,0.061069,0.083969,-0.022901,-0.287842,-0.569092,0.754395,0.00,0.00,0.00
53,-0.114504,0.000000,-0.221374,-0.284912,-0.567871,0.749268,0.00,0.00,0.00
54,-0.030534,-0.114504,-0.198473,-0.292236,-0.561523,0.758301,0.00,0.00,0.00
55,-0.083969,0.015267,-0.175573,-0.292236,-0.572998,0.754150,0.00,0.00,0.00
56,0.152672,-0.061069,-0.244275,-0.291260,-0.567139,0.758301,0.00,0.00,0.00
57,0.091603,0.053435,-0.213740,-0.286621,-0.562988,0.753174,0.00,0.00,0.00
58,-0.091603,0.068702,0.015267,-0.291260,-0.566895,0.755615,0.00,0.00,0.00
59,-0.015267,0.122137,-0.007634,-0.292480,-0.566895,0.764160,0.00,0.00,0.00
60,0.000000,0.091603,-0.076336,-0.294922,-0.564209,0.754883,0.00,0.00,0.00
61,0.007634,0.076336,-0.198473,-0.284180,-0.565186,0.759033,0.00,0.00,0.00
62,0.106870,0.053435,-0.099237,-0.290039,-0.566895,0.749512,0.00,0.00,0.00
63,0.137405,-0.045802,0.000000,-0.286865,-0.566895,0.756348,0.00,0.00,0.00
64,0.068702,0.053435,-0.183206,-0.293457,-0.564941,0.760254,0.00,0.00,0.00
65,0.076336,-0.114504,-0.274809,-0.289062,-0.562012,0.749756,0.00,0.00,0.00
66,0.099237,-0.053435,-0.297710,-0.291504,-0.563965,0.753906,0.00,0.00,0.00
67,0.122137,-0.007634,-0.221374,-0.290283,-0.566406,0.740479,0.00,0.00,0.00
68,0.206107,0.022901,-0.320611,-0.293945,-0.567139,0.749268,0.00,0.00,0.00
69,0.122137,-0.167939,-0.190840,-0.292480,-0.568359,0.760010,0.00,0.00,0.00
70,0.167939,-0.213740,-0.145038,-0.287354,-0.567871,0.758789,0.00,0.00,0.00
71,0.068702,-0.267176,-0.297710,-0.293701,-0.564697,0.762451,0.00,0.00,0.00
72,0.122137,-0.145038,-0.274809,-0.284912,-0.567383,0.750488,0.00,0.00,0.00
73,0.297710,-0.274809,-0.160305,-0.287354,-0.568848,0.750732,0.00,0.00,0.00
74,0.061069,-0.190840,-0.396947,-0.288086,-0.563721,0.753662,0.00,0.00,0.00
75,0.160305,-0.236641,-0.213740,-0.290527,-0.565918,0.745850,0.00,0.00,0.00
76,-0.083969,-0.190840,-0.290076,-0.286621,-0.564941,0.756104,0.00,0.00,0.00
77,0.122137,-0.106870,-0.183206,-0.293945,-0.567139,0.760986,0.00,0.00,0.00
78,0.038168,-0.282443,-0.083969,-0.291260,-0.560303,0.759766,0.00,0.00,0.00
79,0.114504,-0.297710,-0.099237,-0.287354,-0.569580,0.757080,0.00,0.00,0.00
80,0.000000,-0.053435,-0.175573,-0.291016,-0.563477,0.744385,0.00,0.00,0.00
81,0.091603,-0.083969,-0.282443,-0.289062,-0.565430,0.749023,0.00,0.00,0.00
82,0.114504,0.030534,-0.083969,-0.289062,-0.561768,0.763916,0.00,0.00,0.00
83,0.068702,-0.229008,-0.183206,-0.291992,-0.564697,0.751465,0.00,0.00,0.00
84,0.061069,-0.099237,-0.137405,-0.290283,-0.560303,0.756348,0.00,0.00,0.00
85,-0.015267,-0.160305,-0.083969,-0.289795,-0.563721,0.762207,0.00,0.00,0.00
86,-0.038168,-0.068702,-0.183206,-0.287842,-0.564697,0.754883,0.00,0.00,0.00
87,-0.152672,-0.022901,-0.145038,-0.289551,-0.566650,0.755859,0.00,0.00,0.00
88,-0.122137,0.038168,-0.106870,-0.285889,-0.566895,0.758301,0.00,0.00,0.00
89,-0.076336,-0.099237,0.053435,-0.292725,-0.566406,0.755859,0.00,0.00,0.00
90,-0.129771,0.091603,-0.167939,-0.286621,-0.568115,0.757812,0.00,0.00,0.00
91,0.007634,0.030534,-0.244275,-0.292969,-0.566406,0.750977,0.00,0.00,0.00
92,0.015267,0.061069,-0.022901,-0.293945,-0.566895,0.752686,0.00,0.00,0.00
93,0.015267,-0.038168,-0.030534,-0.290039,-0.570801,0.758545,0.00,0.00,0.00
94,-0.160305,0.114504,-0.244275,-0.286865,-0.565430,0.762939,0.00,0.00,0.00
95,-0.061069,-0.068702,-0.152672,-0.286133,-0.564209,0.754395,0.00,0.00,0.00
96,-0.045802,0.091603,-0.244275,-0.286865,-0.565674,0.755859,0.00,0.00,0.00
97,0.030534,-0.030534,-0.198473,-0.292725,-0.570312,0.755859,0.00,0.00,0.00
98,-0.061069,-0.045802,-0.282443,-0.284180,-0.566650,0.745850,0.00,0.00,0.00
99,0.000000,0.015267,-0.190840,-0.283936,-0.567139,0.755615,0.00,0.00,0.00
100,0.129771,0.053435,-0.129771,-0.285156,-0.564941,0.757324,0.00,0.00,0.00
101,-0.061069,0.045802,-0.221374,-0.288086,-0.565430,0.749512,0.00,0.00,0.00
102,-0.022901,0.068702,-0.175573,-0.291992,-0.562988,0.750000,0.00,0.00,0.00
103,-0.045802,-0.091603,-0.152672,-0.291260,-0.564209,0.750000,0.00,0.00,0.00
104,0.038168,-0.053435,-0.167939,-0.287109,-0.567139,0.753906,0.00,0.00,0.00
105,0.099237,-0.015267,-0.106870,-0.289307,-0.563232,0.752686,0.00,0.00,0.00
106,0.038168,0.061069,-0.152672,-0.289795,-0.567383,0.753906,0.00,0.00,0.00
107,0.000000,0.053435,-0.244275,-0.281982,-0.562744,0.750000,0.00,0.00,0.00
108,0.030534,0.038168,-0.183206,-0.294189,-0.566162,0.750000,0.00,0.00,0.00
109,-0.053435,0.068702,-0.251908,-0.286377,-0.563965,0.748291,0.00,0.00,0.00
110,-0.053435,-0.114504,-0.106870,-0.287842,-0.565674,0.754639,0.00,0.00,0.00
111,0.206107,0.045802,-0.221374,-0.288574,-0.565186,0.758545,0.00,0.00,0.00
112,0.053435,-0.015267,-0.076336,-0.291992,-0.563965,0.750488,0.00,0.00,0.00
113,0.091603,-0.137405,-0.083969,-0.285400,-0.569092,0.755127,0.00,0.00,0.00
114,-0.030534,-0.099237,-0.030534,-0.295654,-0.565186,0.756836,0.00,0.00,0.00
115,0.137405,-0.099237,-0.122137,-0.292725,-0.564453,0.759033,0.00,0.00,0.00
116,0.083969,-0.045802,-0.297710,-0.285889,-0.563721,0.750000,0.00,0.00,0.00
117,-0.022901,-0.152672,-0.251908,-0.289551,-0.565918,0.755859,0.00,0.00,0.00
118,-0.038168,-0.244275,-0.328244,-0.289551,-0.563477,0.752441,0.00,0.00,0.00
119,0.206107,-0.129771,-0.343511,-0.289307,-0.567871,0.750732,0.00,0.00,0.00
120,0.061069,0.015267,-0.335878,-0.288086,-0.559082,0.759277,0.00,0.00,0.00
121,0.083969,-0.175573,-0.282443,-0.294189,-0.559082,0.746338,0.00,0.00,0.00
122,0.000000,-0.206107,-0.335878,-0.288330,-0.566406,0.760986,0.00,0.00,0.00
123,0.129771,-0.198473,-0.213740,-0.290527,-0.563232,0.757568,0.00,0.00,0.00
124,-0.007634,-0.221374,-0.328244,-0.293701,-0.563721,0.759766,0.00,0.00,0.00
125,-0.022901,-0.099237,-0.221374,-0.289551,-0.565918,0.757568,0.00,0.00,0.00
126,0.038168,-0.114504,-0.152672,-0.288086,-0.566895,0.759521,0.00,0.00,0.00
127,-0.099237,-0.259542,-0.076336,-0.288574,-0.569092,0.750977,0.00,0.00,0.00
128,0.076336,-0.328244,-0.244275,-0.289307,-0.569092,0.758545,0.00,0.00,0.00
129,0.015267,-0.145038,-0.236641,-0.288818,-0.566162,0.759766,0.00,0.00,0.00
130,-0.061069,-0.099237,-0.213740,-0.287354,-0.564697,0.750977,0.00,0.00,0.00
131,0.160305,-0.167939,-0.061069,-0.289551,-0.564941,0.759766,0.00,0.00,0.00
132,0.015267,-0.145038,-0.114504,-0.290039,-0.565186,0.753174,0.00,0.00,0.00
133,-0.129771,-0.061069,-0.259542,-0.292969,-0.567871,0.749512,0.00,0.00,0.00
134,-0.030534,0.030534,-0.137405,-0.290771,-0.566162,0.753906,0.00,0.00,0.00
135,-0.099237,-0.076336,-0.221374,-0.283691,-0.561279,0.761230,0.00,0.00,0.00
136,0.198473,-0.145038,-0.183206,-0.290771,-0.564941,0.759521,0.00,0.00,0.00
137,0.068702,-0.091603,-0.267176,-0.288330,-0.571533,0.754883,0.00,0.00,0.00
138,0.030534,-0.175573,-0.099237,-0.286865,-0.569580,0.751465,0.00,0.00,0.00
139,-0.007634,-0.183206,-0.229008,-0.284668,-0.563477,0.752686,0.00,0.00,0.00
140,0.038168,-0.061069,-0.305344,-0.286865,-0.561523,0.745850,0.00,0.00,0.00
141,0.030534,-0.145038,-0.198473,-0.288574,-0.566650,0.749756,0.00,0.00,0.00
142,-0.015267,-0.091603,-0.198473,-0.287842,-0.563477,0.769043,0.00,0.00,0.00
143,0.015267,-0.213740,-0.015267,-0.283936,-0.566406,0.756836,0.00,0.00,0.00
144,-0.083969,-0.061069,-0.259542,-0.292480,-0.562500,0.760498,0.00,0.00,0.00
145,0.068702,0.083969,0.022901,-0.291260,-0.562988,0.757568,0.00,0.00,0.00
146,-0.160305,0.122137,-0.083969,-0.291504,-0.563965,0.755371,0.00,0.00,0.00
147,-0.015267,-0.068702,-0.137405,-0.289795,-0.559570,0.759521,0.00,0.00,0.00
148,-0.022901,0.091603,-0.183206,-0.284180,-0.564209,0.761719,0.00,0.00,0.00
149,-0.175573,-0.030534,-0.297710,-0.289062,-0.561768,0.757080,0.00,0.00,0.00
150,-0.160305,0.045802,-0.129771,-0.287109,-0.565430,0.755127,0.00,0.00,0.00
151,0.030534,0.000000,-0.137405,-0.285645,-0.565186,0.754883,0.00,0.00,0.00
152,-0.083969,0.122137,-0.137405,-0.288086,-0.568115,0.759766,0.00,0.00,0.00
153,-0.083969,0.045802,-0.305344,-0.288574,-0.563232,0.755859,0.00,0.00,0.00
154,-0.007634,0.007634,-0.221374,-0.293213,-0.561768,0.750977,0.00,0.00,0.00
155,-0.152672,0.022901,-0.198473,-0.292480,-0.559814,0.748047,0.00,0.00,0.00
156,-0.076336,-0.091603,-0.099237,-0.289551,-0.568359,0.753662,0.00,0.00,0.00
157,0.000000,-0.091603,-0.198473,-0.289307,-0.563965,0.754150,0.00,0.00,0.00
158,0.015267,-0.137405,-0.274809,-0.289551,-0.566406,0.755615,0.00,0.00,0.00
159,-0.045802,-0.145038,-0.290076,-0.294922,-0.564941,0.762451,0.00,0.00,0.00
160,0.000000,-0.068702,-0.305344,-0.290039,-0.565674,0.743408,0.00,0.00,0.00
161,0.038168,-0.083969,0.053435,-0.291748,-0.568115,0.751465,0.00,0.00,0.00
162,0.000000,-0.190840,-0.122137,-0.289307,-0.561279,0.768799,0.00,0.00,0.00
163,-0.061069,-0.022901,-0.259542,-0.282227,-0.561523,0.748779,0.00,0.00,0.00
164,0.061069,-0.099237,-0.068702,-0.292969,-0.566895,0.755371,0.00,0.00,0.00
165,-0.007634,-0.061069,-0.251908,-0.285156,-0.561768,0.757568,0.00,0.00,0.00
166,-0.038168,-0.015267,-0.145038,-0.289062,-0.565430,0.761230,0.00,0.00,0.00
167,-0.068702,-0.167939,-0.244275,-0.286133,-0.559570,0.751709,0.00,0.00,0.00
168,0.274809,-0.175573,-0.206107,-0.284424,-0.564209,0.756836,0.00,0.00,0.00
169,0.198473,-0.175573,-0.160305,-0.289551,-0.567627,0.756836,0.00,0.00,0.00
170,-0.045802,-0.083969,-0.236641,-0.289795,-0.568115,0.757080,0.00,0.00,0.00
171,0.030534,-0.122137,-0.076336,-0.290283,-0.566895,0.757324,0.00,0.00,0.00
172,0.152672,-0.221374,-0.229008,-0.293457,-0.563477,0.754639,0.00,0.00,0.00
173,0.053435,-0.328244,-0.221374,-0.289307,-0.568604,0.756592,0.00,0.00,0.00
174,0.022901,-0.320611,-0.198473,-0.292480,-0.567627,0.753906,0.00,0.00,0.00
175,0.015267,-0.213740,-0.244275,-0.288818,-0.570801,0.760986,0.00,0.00,0.00
176,0.206107,-0.244275,-0.167939,-0.290771,-0.565674,0.757324,0.00,0.00,0.00
177,0.175573,-0.320611,-0.282443,-0.282471,-0.560303,0.761230,0.00,0.00,0.00
178,0.167939,-0.290076,-0.343511,-0.282227,-0.561035,0.748291,0.00,0.00,0.00
179,0.038168,-0.099237,-0.198473,-0.288574,-0.565674,0.755859,0.00,0.00,0.00
180,0.122137,-0.099237,-0.251908,-0.286621,-0.565674,0.754639,0.00,0.00,0.00
181,0.076336,0.015267,-0.213740,-0.292236,-0.565186,0.768066,0.00,0.00,0.00
182,0.038168,-0.190840,-0.129771,-0.283447,-0.571045,0.757080,0.00,0.00,0.00
183,0.175573,0.061069,-0.213740,-0.285889,-0.561035,0.755859,0.00,0.00,0.00
184,-0.061069,0.061069,-0.251908,-0.291016,-0.565186,0.753174,0.00,0.00,0.00
185,0.053435,0.053435,-0.099237,-0.286377,-0.560791,0.764404,0.00,0.00,0.00
186,0.175573,0.122137,-0.152672,-0.286865,-0.562988,0.754395,0.00,0.00,0.00
187,0.045802,0.022901,-0.145038,-0.288818,-0.565674,0.758301,0.00,0.00,0.00
188,-0.160305,-0.053435,-0.076336,-0.287354,-0.559082,0.756348,0.00,0.00,0.00
189,-0.053435,-0.206107,-0.183206,-0.295654,-0.563965,0.751953,0.00,0.00,0.00
190,-0.083969,-0.053435,-0.213740,-0.293213,-0.565186,0.758789,0.00,0.00,0.00
191,0.053435,-0.038168,-0.106870,-0.282959,-0.567139,0.759033,0.00,0.00,0.00
192,-0.007634,0.022901,-0.122137,-0.286865,-0.562744,0.758301,0.00,0.00,0.00
193,-0.022901,0.022901,-0.083969,-0.291748,-0.567627,0.754150,0.00,0.00,0.00
194,0.099237,-0.030534,-0.221374,-0.279541,-0.562500,0.746826,0.00,0.00,0.00
195,0.053435,0.022901,-0.122137,-0.292969,-0.562256,0.752686,0.00,0.00,0.00
196,-0.030534,-0.061069,-0.114504,-0.290039,-0.573975,0.753662,0.00,0.00,0.00
197,0.015267,-0.015267,-0.038168,-0.287842,-0.566650,0.746826,0.00,0.00,0.00
198,0.122137,-0.083969,-0.213740,-0.288818,-0.563721,0.760742,0.00,0.00,0.00
199,0.053435,0.061069,-0.114504,-0.290283,-0.569092,0.742920,0.00,0.00,0.00
200,0.091603,0.053435,-0.213740,-0.289062,-0.565186,0.752930,0.00,0.00,0.00
201,-0.038168,-0.099237,-0.045802,-0.290527,-0.562988,0.753906,0.00,0.00,0.00
202,-0.007634,0.030534,-0.137405,-0.288330,-0.563965,0.751709,0.00,0.00,0.00
203,-0.053435,0.045802,-0.145038,-0.291016,-0.563477,0.761719,0.00,0.00,0.00
204,-0.083969,-0.198473,-0.053435,-0.287842,-0.566895,0.760986,0.00,0.00,0.00
205,-0.061069,0.160305,-0.137405,-0.291992,-0.565918,0.755615,0.00,0.00,0.00
206,-0.190840,0.000000,-0.061069,-0.285645,-0.560059,0.762695,0.00,0.00,0.00
207,-0.038168,0.152672,0.053435,-0.284912,-0.559570,0.754150,0.00,0.00,0.00
208,-0.099237,0.160305,-0.015267,-0.284912,-0.563721,0.761230,0.00,0.00,0.00
209,-0.274809,0.038168,0.045802,-0.286621,-0.566406,0.748291,0.00,0.00,0.00
210,-0.152672,0.038168,-0.061069,-0.288574,-0.561523,0.755371,0.00,0.00,0.00
211,-0.022901,0.129771,0.000000,-0.291748,-0.566650,0.754883,0.00,0.00,0.00
212,-0.076336,0.091603,-0.099237,-0.287354,-0.563477,0.750732,0.00,0.00,0.00
213,-0.053435,0.045802,0.007634,-0.295898,-0.563965,0.759521,0.00,0.00,0.00
214,0.022901,0.015267,-0.015267,-0.290039,-0.566895,0.750732,0.00,0.00,0.00
215,0.030534,-0.076336,-0.106870,-0.294678,-0.561523,0.762207,0.00,0.00,0.00
216,-0.083969,-0.030534,0.038168,-0.290771,-0.564453,0.754395,0.00,0.00,0.00
217,-0.045802,0.129771,0.007634,-0.283447,-0.561279,0.755127,0.00,0.00,0.00
218,-0.114504,-0.053435,-0.076336,-0.289307,-0.567871,0.751221,0.00,0.00,0.00
219,0.106870,0.000000,-0.015267,-0.289307,-0.564941,0.747314,0.00,0.00,0.00
220,-0.007634,-0.145038,-0.145038,-0.283447,-0.561768,0.759521,0.00,0.00,0.00
221,-0.083969,-0.053435,-0.175573,-0.294434,-0.572998,0.752930,0.00,0.00,0.00
222,-0.045802,0.122137,-0.083969,-0.289307,-0.560547,0.758301,0.00,0.00,0.00
223,-0.083969,0.007634,-0.083969,-0.281982,-0.567871,0.766846,0.00,0.00,0.00
224,0.038168,-0.022901,0.038168,-0.284912,-0.568115,0.760498,0.00,0.00,0.00
225,0.106870,0.145038,-0.175573,-0.289062,-0.561279,0.756104,0.00,0.00,0.00
226,-0.038168,0.030534,-0.122137,-0.287109,-0.562256,0.752686,0.00,0.00,0.00
227,-0.022901,0.068702,-0.076336,-0.286133,-0.554199,0.748047,0.00,0.00,0.00
228,-0.068702,0.007634,-0.129771,-0.284912,-0.562988,0.758789,0.00,0.00,0.00
229,0.007634,-0.114504,-0.206107,-0.291748,-0.565430,0.761719,0.00,0.00,0.00
230,-0.045802,0.061069,-0.137405,-0.288330,-0.566162,0.753418,0.00,0.00,0.00
231,0.068702,-0.015267,-0.091603,-0.290527,-0.568359,0.758545,0.00,0.00,0.00
232,-0.068702,0.175573,-0.091603,-0.286377,-0.562500,0.760254,0.00,0.00,0.00
233,-0.328244,0.137405,-0.076336,-0.290771,-0.564697,0.757080,0.00,0.00,0.00
234,-0.045802,0.007634,-0.091603,-0.285400,-0.562744,0.757812,0.00,0.00,0.00
235,-0.152672,0.045802,-0.129771,-0.290039,-0.563965,0.758301,0.00,0.00,0.00
236,-0.206107,-0.045802,0.007634,-0.281738,-0.565918,0.757080,0.00,0.00,0.00
237,-0.045802,0.076336,0.122137,-0.291260,-0.568848,0.758545,0.00,0.00,0.00
238,-0.106870,-0.091603,-0.007634,-0.289307,-0.564941,0.758301,0.00,0.00,0.00
239,-0.053435,0.007634,-0.076336,-0.287354,-0.567627,0.750732,0.00,0.00,0.00
240,0.030534,0.030534,-0.183206,-0.291992,-0.570312,0.749512,0.00,0.00,0.00
241,-0.061069,0.061069,-0.045802,-0.288330,-0.572510,0.752441,0.00,0.00,0.00
242,-0.053435,-0.015267,-0.114504,-0.288330,-0.561279,0.756592,0.00,0.00,0.00
243,0.038168,-0.015267,-0.106870,-0.285889,-0.565918,0.744385,0.00,0.00,0.00
244,0.053435,0.083969,-0.022901,-0.292969,-0.566406,0.763672,0.00,0.00,0.00
245,-0.160305,0.122137,-0.167939,-0.287598,-0.564941,0.749268,0.00,0.00,0.00
246,-0.068702,0.129771,-0.038168,-0.286133,-0.567139,0.754883,0.00,0.00,0.00
247,-0.061069,-0.038168,0.015267,-0.290527,-0.564941,0.755859,0.00,0.00,0.00
248,-0.068702,0.053435,-0.015267,-0.296875,-0.564453,0.749756,0.00,0.00,0.00
249,0.015267,0.167939,0.000000,-0.292969,-0.563721,0.766846,0.00,0.00,0.00
250,-0.053435,0.007634,-0.106870,-0.291260,-0.562744,0.760498,0.00,0.00,0.00
251,-0.083969,0.129771,-0.068702,-0.284180,-0.562256,0.756592,0.00,0.00,0.00
252,-0.221374,0.000000,-0.137405,-0.290771,-0.566650,0.753906,0.00,0.00,0.00
253,0.000000,0.145038,0.022901,-0.292480,-0.562744,0.751709,0.00,0.00,0.00
254,0.022901,-0.053435,-0.259542,-0.291748,-0.563721,0.746338,0.00,0.00,0.00
255,-0.022901,0.007634,0.000000,-0.296631,-0.562988,0.753662,0.00,0.00,0.00
256,-0.129771,0.053435,-0.099237,-0.287598,-0.569092,0.758057,0.00,0.00,0.00
257,-0.244275,-0.045802,0.030534,-0.291748,-0.564941,0.759033,0.00,0.00,0.00
258,0.053435,0.022901,-0.175573,-0.289795,-0.563477,0.757324,0.00,0.00,0.00
259,0.106870,-0.015267,-0.259542,-0.284668,-0.566162,0.767334,0.00,0.00,0.00
260,-0.045802,-0.015267,-0.183206,-0.289307,-0.568359,0.760742,0.00,0.00,0.00
261,0.022901,-0.167939,-0.083969,-0.288086,-0.565674,0.752441,0.00,0.00,0.00
262,-0.015267,-0.053435,-0.061069,-0.295654,-0.568848,0.753906,0.00,0.00,0.00
263,0.030534,0.061069,-0.206107,-0.291016,-0.562500,0.754639,0.00,0.00,0.00
264,-0.129771,0.000000,-0.053435,-0.290527,-0.570557,0.760254,0.00,0.00,0.00
265,0.099237,0.038168,-0.091603,-0.284912,-0.563232,0.757080,0.00,0.00,0.00
266,-0.061069,0.206107,-0.068702,-0.292480,-0.571289,0.760010,0.00,0.00,0.00
267,-0.106870,0.137405,-0.160305,-0.296143,-0.564697,0.751709,0.00,0.00,0.00
268,-0.114504,-0.152672,-0.030534,-0.287842,-0.568359,0.752441,0.00,0.00,0.00
269,-0.045802,0.160305,0.038168,-0.281494,-0.572510,0.751709,0.00,0.00,0.00
270,-0.106870,0.213740,0.038168,-0.293213,-0.568604,0.760010,0.00,0.00,0.00
271,-0.137405,0.175573,-0.129771,-0.280518,-0.564697,0.754639,0.00,0.00,0.00
272,-0.015267,0.091603,-0.137405,-0.290527,-0.563965,0.764893,0.00,0.00,0.00
273,-0.206107,-0.053435,-0.022901,-0.296875,-0.571289,0.748779,0.00,0.00,0.00
274,-0.061069,0.091603,-0.083969,-0.289551,-0.567139,0.746094,0.00,0.00,0.00
275,-0.068702,-0.145038,-0.251908,-0.291260,-0.566895,0.758789,0.00,0.00,0.00
276,0.015267,0.053435,-0.038168,-0.285400,-0.562500,0.745605,0.00,0.00,0.00
277,0.038168,0.045802,-0.022901,-0.292480,-0.568359,0.766846,0.00,0.00,0.00
278,0.015267,-0.007634,-0.145038,-0.292725,-0.561768,0.759521,0.00,0.00,0.00
279,0.045802,0.038168,-0.083969,-0.288574,-0.564453,0.757324,0.00,0.00,0.00
280,0.167939,-0.083969,-0.221374,-0.291260,-0.565674,0.747314,0.00,0.00,0.00
281,0.000000,-0.083969,-0.091603,-0.285156,-0.565918,0.754883,0.00,0.00,0.00
282,-0.007634,-0.190840,-0.229008,-0.281494,-0.562256,0.762939,0.00,0.00,0.00
283,-0.045802,0.145038,-0.305344,-0.292480,-0.565186,0.747314,0.00,0.00,0.00
284,0.015267,-0.076336,-0.274809,-0.284912,-0.561768,0.755371,0.00,0.00,0.00
285,0.175573,-0.175573,-0.206107,-0.292725,-0.568359,0.759277,0.00,0.00,0.00
286,0.190840,-0.198473,-0.122137,-0.297852,-0.566650,0.760254,0.00,0.00,0.00
287,0.000000,-0.114504,-0.274809,-0.288330,-0.566162,0.758301,0.00,0.00,0.00
288,0.183206,0.076336,-0.328244,-0.291260,-0.564697,0.752441,0.00,0.00,0.00
289,0.152672,-0.160305,-0.083969,-0.287109,-0.569092,0.757568,0.00,0.00,0.00
290,0.083969,-0.152672,-0.190840,-0.290527,-0.565430,0.760254,0.00,0.00,0.00
291,0.160305,-0.290076,-0.152672,-0.283691,-0.563477,0.755615,0.00,0.00,0.00
292,0.229008,-0.267176,-0.122137,-0.286621,-0.565430,0.755127,0.00,0.00,0.00
293,0.160305,-0.129771,-0.152672,-0.285400,-0.562256,0.750000,0.00,0.00,0.00
294,0.198473,-0.335878,-0.297710,-0.289307,-0.570068,0.753174,0.00,0.00,0.00
295,0.145038,-0.290076,-0.267176,-0.288574,-0.559570,0.747070,0.00,0.00,0.00
296,0.122137,-0.206107,-0.351145,-0.290771,-0.567383,0.767090,0.00,0.00,0.00
297,0.167939,-0.091603,-0.328244,-0.288574,-0.569336,0.758789,0.00,0.00,0.00
298,0.099237,-0.198473,-0.244275,-0.291504,-0.563232,0.762695,0.00,0.00,0.00
299,0.015267,-0.129771,-0.366412,-0.285889,-0.562988,0.767822,0.00,0.00,0.00
300,0.015267,-0.137405,-0.198473,-0.293701,-0.566406,0.762695,0.00,0.00,0.00
301,0.015267,-0.160305,-0.229008,-0.287354,-0.562012,0.760742,0.00,0.00,0.00
302,0.038168,-0.129771,-0.190840,-0.286133,-0.556152,0.765869,0.00,0.00,0.00
303,0.091603,-0.045802,-0.167939,-0.284668,-0.566895,0.755371,0.00,0.00,0.00
304,-0.007634,-0.038168,-0.122137,-0.287109,-0.565674,0.763428,0.00,0.00,0.00
305,-0.045802,-0.106870,-0.221374,-0.286133,-0.564697,0.763184,0.00,0.00,0.00
306,-0.091603,0.045802,-0.053435,-0.287598,-0.559082,0.751221,0.00,0.00,0.00
307,-0.053435,0.083969,-0.213740,-0.284668,-0.560059,0.754883,0.00,0.00,0.00
308,-0.068702,0.175573,-0.129771,-0.289062,-0.563477,0.758057,0.00,0.00,0.00
309,-0.198473,0.022901,-0.053435,-0.290283,-0.562988,0.754395,0.00,0.00,0.00
310,-0.106870,0.022901,-0.198473,-0.292969,-0.560791,0.764404,0.00,0.00,0.00
311,-0.022901,0.190840,-0.083969,-0.283203,-0.564209,0.763184,0.00,0.00,0.00
312,-0.068702,0.267176,0.053435,-0.285645,-0.570557,0.763672,0.00,0.00,0.00
313,-0.053435,0.190840,0.068702,-0.290039,-0.568848,0.758057,0.00,0.00,0.00
314,0.091603,0.106870,-0.114504,-0.288330,-0.566650,0.748291,0.00,0.00,0.00
315,0.076336,0.137405,-0.038168,-0.291992,-0.561279,0.757812,0.00,0.00,0.00
316,-0.091603,0.152672,0.030534,-0.286621,-0.562744,0.748779,0.00,0.00,0.00
317,-0.038168,0.137405,-0.061069,-0.292236,-0.568604,0.745605,0.00,0.00,0.00
318,0.045802,0.236641,-0.038168,-0.290771,-0.569092,0.754150,0.00,0.00,0.00
319,-0.213740,0.038168,-0.022901,-0.286621,-0.565430,0.752197,0.00,0.00,0.00
320,-0.152672,0.007634,-0.114504,-0.289795,-0.567627,0.747314,0.00,0.00,0.00
321,0.076336,0.061069,0.129771,-0.289307,-0.565674,0.746582,0.00,0.00,0.00
322,-0.045802,0.053435,-0.030534,-0.286133,-0.566895,0.755615,0.00,0.00,0.00
323,0.099237,0.091603,0.000000,-0.292725,-0.568604,0.763916,0.00,0.00,0.00
324,0.091603,-0.030534,0.068702,-0.286377,-0.565918,0.761475,0.00,0.00,0.00
325,0.229008,-0.022901,0.053435,-0.284912,-0.560547,0.760498,0.00,0.00,0.00
326,0.106870,-0.038168,-0.007634,-0.285889,-0.567383,0.754150,0.00,0.00,0.00
327,-0.068702,0.022901,0.091603,-0.292480,-0.563965,0.749512,0.00,0.00,0.00
328,-0.152672,0.068702,-0.083969,-0.287598,-0.567383,0.763428,0.00,0.00,0.00
329,-0.137405,0.007634,-0.030534,-0.284668,-0.567139,0.759766,0.00,0.00,0.00
330,-0.175573,0.045802,0.091603,-0.288330,-0.564453,0.756592,0.00,0.00,0.00
331,-0.083969,0.015267,0.038168,-0.291504,-0.570557,0.752930,0.00,0.00,0.00
332,-0.091603,-0.091603,0.022901,-0.291504,-0.566162,0.762207,0.00,0.00,0.00
333,0.022901,-0.015267,-0.106870,-0.294678,-0.567627,0.758301,0.00,0.00,0.00
334,-0.007634,0.022901,-0.015267,-0.284668,-0.567383,0.754150,0.00,0.00,0.00
335,-0.190840,0.000000,-0.190840,-0.292480,-0.563721,0.756104,0.00,0.00,0.00
336,-0.122137,-0.091603,-0.122137,-0.289062,-0.562012,0.759277,0.00,0.00,0.00
337,0.007634,-0.091603,-0.229008,-0.288818,-0.564209,0.754883,0.00,0.00,0.00
338,0.061069,-0.068702,-0.328244,-0.289307,-0.565430,0.751221,0.00,0.00,0.00
339,0.175573,-0.045802,-0.282443,-0.287598,-0.567139,0.760742,0.00,0.00,0.00
340,0.099237,-0.022901,-0.167939,-0.290039,-0.564697,0.757812,0.00,0.00,0.00
341,0.091603,0.122137,-0.381679,-0.292236,-0.561035,0.764404,0.00,0.00,0.00
342,0.038168,-0.183206,-0.282443,-0.285400,-0.565186,0.755615,0.00,0.00,0.00
343,0.015267,-0.015267,-0.213740,-0.289062,-0.565186,0.764648,0.00,0.00,0.00
344,0.038168,-0.198473,-0.129771,-0.290039,-0.564453,0.755371,0.00,0.00,0.00
345,0.038168,-0.022901,-0.267176,-0.284912,-0.565430,0.748291,0.00,0.00,0.00
346,0.068702,0.030534,-0.129771,-0.290039,-0.563721,0.758301,0.00,0.00,0.00
347,-0.007634,0.076336,-0.175573,-0.286865,-0.569092,0.755371,0.00,0.00,0.00
348,-0.030534,0.007634,-0.022901,-0.291260,-0.561523,0.753662,0.00,0.00,0.00
349,0.068702,0.015267,-0.015267,-0.284424,-0.565674,0.757080,0.00,0.00,0.00
350,-0.106870,-0.106870,-0.114504,-0.281250,-0.562500,0.764404,0.00,0.00,0.00
351,0.038168,0.045802,-0.137405,-0.288330,-0.568115,0.759277,0.00,0.00,0.00
352,0.038168,0.038168,-0.106870,-0.289551,-0.566406,0.757080,0.00,0.00,0.00
353,0.038168,0.198473,-0.175573,-0.287354,-0.567871,0.749268,0.00,0.00,0.00
354,-0.061069,0.091603,-0.083969,-0.291748,-0.567383,0.748535,0.00,0.00,0.00
355,-0.045802,0.244275,-0.053435,-0.290283,-0.563721,0.753906,0.00,0.00,0.00
356,-0.099237,0.206107,-0.038168,-0.287842,-0.563477,0.759521,0.00,0.00,0.00
357,-0.122137,0.160305,-0.007634,-0.288330,-0.561035,0.767578,0.00,0.00,0.00
358,-0.099237,0.198473,0.038168,-0.292480,-0.568604,0.750732,0.00,0.00,0.00
359,-0.244275,0.145038,-0.022901,-0.294678,-0.563477,0.748779,0.00,0.00,0.00
360,-0.083969,0.099237,-0.022901,-0.289307,-0.560791,0.759766,0.00,0.00,0.00
361,-0.152672,0.137405,-0.068702,-0.287354,-0.563965,0.747070,0.00,0.00,0.00
362,-0.198473,0.175573,-0.015267,-0.290039,-0.561768,0.754883,0.00,0.00,0.00
363,-0.022901,0.167939,-0.099237,-0.291992,-0.568848,0.754639,0.00,0.00,0.00
364,0.000000,0.083969,-0.030534,-0.284424,-0.563232,0.752441,0.00,0.00,0.00
365,-0.015267,0.053435,-0.038168,-0.288330,-0.560791,0.748779,0.00,0.00,0.00
366,-0.015267,0.076336,-0.175573,-0.289551,-0.562012,0.753906,0.00,0.00,0.00
367,-0.106870,0.076336,-0.061069,-0.285156,-0.561768,0.760254,0.00,0.00,0.00
368,-0.099237,0.175573,-0.076336,-0.289307,-0.556152,0.754883,0.00,0.00,0.00
369,-0.190840,0.045802,-0.122137,-0.281494,-0.560303,0.762207,0.00,0.00,0.00
370,-0.030534,0.007634,-0.190840,-0.293701,-0.569336,0.748779,0.00,0.00,0.00
371,-0.129771,-0.061069,-0.099237,-0.291016,-0.558838,0.749512,0.00,0.00,0.00
372,-0.022901,0.076336,-0.129771,-0.288086,-0.563232,0.755615,0.00,0.00,0.00
373,-0.007634,0.030534,-0.129771,-0.287842,-0.565186,0.756348,0.00,0.00,0.00
374,-0.083969,0.007634,-0.106870,-0.293213,-0.565430,0.758301,0.00,0.00,0.00
375,0.038168,0.000000,-0.183206,-0.290771,-0.564209,0.760010,0.00,0.00,0.00
376,-0.091603,0.007634,-0.099237,-0.292969,-0.565186,0.755371,0.00,0.00,0.00
377,-0.091603,-0.068702,0.015267,-0.290039,-0.562988,0.755127,0.00,0.00,0.00
378,-0.167939,0.160305,0.007634,-0.288818,-0.564941,0.757812,0.00,0.00,0.00
379,0.053435,-0.015267,-0.030534,-0.283936,-0.559814,0.751465,0.00,0.00,0.00
380,0.068702,0.045802,0.030534,-0.284180,-0.568604,0.756104,0.00,0.00,0.00
381,-0.068702,0.152672,-0.076336,-0.289795,-0.563232,0.748291,0.00,0.00,0.00
382,-0.114504,0.183206,0.007634,-0.289795,-0.562256,0.753662,0.00,0.00,0.00
383,0.045802,0.213740,-0.167939,-0.288086,-0.563721,0.759766,0.00,0.00,0.00
384,0.053435,-0.030534,-0.137405,-0.289551,-0.565918,0.758301,0.00,0.00,0.00
385,-0.030534,0.160305,-0.068702,-0.294678,-0.563721,0.754883,0.00,0.00,0.00
386,-0.045802,0.045802,0.030534,-0.290039,-0.567383,0.757080,0.00,0.00,0.00
387,0.114504,0.007634,-0.175573,-0.291504,-0.567383,0.754883,0.00,0.00,0.00
388,-0.145038,0.030534,-0.053435,-0.293945,-0.562744,0.754395,0.00,0.00,0.00
389,-0.213740,0.015267,-0.152672,-0.287842,-0.566162,0.747803,0.00,0.00,0.00
390,-0.106870,0.068702,-0.068702,-0.292236,-0.564941,0.759277,0.00,0.00,0.00
391,0.015267,-0.083969,-0.213740,-0.283936,-0.564453,0.758301,0.00,0.00,0.00
392,-0.091603,-0.053435,0.007634,-0.286621,-0.564209,0.755859,0.00,0.00,0.00
393,-0.022901,-0.007634,-0.091603,-0.292236,-0.561768,0.748535,0.00,0.00,0.00
394,-0.061069,-0.076336,-0.114504,-0.291748,-0.564453,0.754150,0.00,0.00,0.00
395,-0.091603,0.083969,-0.145038,-0.285889,-0.568604,0.753662,0.00,0.00,0.00
396,-0.061069,-0.053435,-0.076336,-0.292725,-0.570312,0.753174,0.00,0.00,0.00
397,0.022901,0.045802,-0.106870,-0.297363,-0.568115,0.759521,0.00,0.00,0.00
398,-0.045802,-0.007634,-0.137405,-0.291504,-0.564697,0.750488,0.00,0.00,0.00
399,0.053435,0.007634,-0.083969,-0.289062,-0.570312,0.747803,0.00,0.00,0.00
400,-0.007634,0.076336,-0.076336,-0.287598,-0.560547,0.764404,0.00,0.00,0.00
401,0.045802,-0.045802,-0.198473,-0.289795,-0.572021,0.749268,0.00,0.00,0.00
402,0.000000,-0.190840,-0.061069,-0.291748,-0.563721,0.748047,0.00,0.00,0.00
403,-0.083969,-0.160305,-0.290076,-0.288330,-0.568359,0.763672,0.00,0.00,0.00
404,-0.061069,0.068702,-0.152672,-0.289062,-0.563965,0.761230,0.00,0.00,0.00
405,0.076336,-0.083969,-0.221374,-0.286621,-0.561523,0.760498,0.00,0.00,0.00
406,0.145038,-0.290076,-0.206107,-0.289307,-0.564941,0.758301,0.00,0.00,0.00
407,0.137405,-0.145038,-0.190840,-0.287598,-0.563232,0.752441,0.00,0.00,0.00
408,0.015267,-0.267176,-0.358779,-0.289551,-0.563477,0.752930,0.00,0.00,0.00
409,0.099237,-0.221374,-0.167939,-0.287109,-0.564697,0.759521,0.00,0.00,0.00
410,0.045802,-0.106870,-0.236641,-0.288086,-0.570801,0.746582,0.00,0.00,0.00
411,0.106870,-0.137405,-0.206107,-0.286621,-0.563477,0.761719,0.00,0.00,0.00
412,-0.022901,-0.038168,-0.015267,-0.279541,-0.565430,0.758789,0.00,0.00,0.00
413,-0.030534,0.022901,-0.061069,-0.289062,-0.564697,0.760742,0.00,0.00,0.00
414,-0.030534,-0.206107,0.236641,-0.288086,-0.561768,0.754639,0.00,0.00,0.00
415,0.000000,-0.007634,-0.122137,-0.289307,-0.563232,0.757324,0.00,0.00,0.00
416,-0.061069,-0.137405,-0.091603,-0.292725,-0.563721,0.762207,0.00,0.00,0.00
417,-0.030534,-0.045802,-0.137405,-0.286133,-0.563965,0.761963,0.00,0.00,0.00
418,0.030534,-0.259542,-0.190840,-0.284668,-0.569092,0.757080,0.00,0.00,0.00
419,0.137405,-0.099237,-0.244275,-0.293457,-0.567383,0.754639,0.00,0.00,0.00
420,-0.022901,-0.068702,-0.145038,-0.286621,-0.569336,0.747803,0.00,0.00,0.00
421,0.015267,-0.198473,-0.152672,-0.288086,-0.559814,0.748291,0.00,0.00,0.00
422,0.053435,-0.145038,-0.236641,-0.289551,-0.558594,0.758057,0.00,0.00,0.00
423,-0.068702,-0.022901,-0.206107,-0.289307,-0.564941,0.754883,0.00,0.00,0.00
424,-0.076336,-0.053435,-0.106870,-0.291016,-0.568604,0.750000,0.00,0.00,0.00
425,-0.015267,0.099237,-0.190840,-0.291260,-0.565918,0.753418,0.00,0.00,0.00
426,-0.007634,-0.152672,-0.114504,-0.290283,-0.563965,0.756592,0.00,0.00,0.00
427,0.083969,0.068702,-0.183206,-0.288818,-0.563232,0.757568,0.00,0.00,0.00
428,-0.022901,0.015267,-0.099237,-0.293701,-0.571045,0.753662,0.00,0.00,0.00
429,-0.061069,0.045802,-0.076336,-0.291504,-0.568848,0.753174,0.00,0.00,0.00
430,-0.045802,0.160305,-0.251908,-0.290527,-0.563232,0.753906,0.00,0.00,0.00
431,0.053435,0.091603,-0.190840,-0.290527,-0.562012,0.754883,0.00,0.00,0.00
432,-0.038168,0.206107,0.030534,-0.288330,-0.568848,0.766602,0.00,0.00,0.00
433,0.045802,0.114504,-0.099237,-0.291016,-0.565430,0.754395,0.00,0.00,0.00
434,-0.160305,0.122137,-0.145038,-0.283936,-0.562744,0.759033,0.00,0.00,0.00
435,0.007634,0.366412,-0.251908,-0.294189,-0.565674,0.754395,0.00,0.00,0.00
436,0.015267,0.053435,-0.145038,-0.292480,-0.564453,0.762695,0.00,0.00,0.00
437,0.000000,0.106870,-0.274809,-0.292969,-0.569580,0.760742,0.00,0.00,0.00
438,0.076336,0.091603,-0.213740,-0.287842,-0.566406,0.758301,0.00,0.00,0.00
439,-0.022901,0.068702,-0.290076,-0.287354,-0.566650,0.748779,0.00,0.00,0.00
440,-0.068702,0.053435,-0.053435,-0.287842,-0.562744,0.751709,0.00,0.00,0.00
441,0.045802,-0.068702,-0.030534,-0.291992,-0.562500,0.765869,0.00,0.00,0.00
442,-0.030534,-0.061069,-0.221374,-0.291992,-0.567871,0.758545,0.00,0.00,0.00
443,-0.152672,0.091603,-0.198473,-0.288818,-0.565918,0.747070,0.00,0.00,0.00
444,0.061069,-0.007634,-0.129771,-0.286377,-0.568115,0.760742,0.00,0.00,0.00
445,-0.091603,-0.061069,-0.152672,-0.289062,-0.563232,0.754395,0.00,0.00,0.00
446,0.045802,0.022901,-0.175573,-0.282471,-0.558594,0.751709,0.00,0.00,0.00
447,-0.152672,0.000000,-0.114504,-0.289062,-0.562744,0.745361,0.00,0.00,0.00
448,0.076336,0.030534,-0.145038,-0.294678,-0.565918,0.761719,0.00,0.00,0.00
449,-0.145038,-0.114504,-0.175573,-0.285889,-0.567627,0.755127,0.00,0.00,0.00
450,0.000000,0.114504,-0.091603,-0.283203,-0.566650,0.746582,0.00,0.00,0.00
451,0.122137,0.068702,-0.183206,-0.295410,-0.566895,0.751953,0.00,0.00,0.00
452,0.083969,-0.122137,-0.213740,-0.288086,-0.560303,0.757080,0.00,0.00,0.00
453,0.038168,-0.038168,-0.076336,-0.289307,-0.564697,0.755615,0.00,0.00,0.00
454,0.030534,0.053435,-0.030534,-0.287842,-0.568359,0.763184,0.00,0.00,0.00
455,-0.045802,0.015267,-0.312977,-0.286377,-0.566895,0.747314,0.00,0.00,0.00
456,0.053435,-0.076336,-0.129771,-0.293945,-0.567871,0.764648,0.00,0.00,0.00
457,-0.068702,-0.106870,-0.183206,-0.286865,-0.562256,0.756348,0.00,0.00,0.00
458,-0.175573,-0.106870,-0.152672,-0.284180,-0.565186,0.751465,0.00,0.00,0.00
459,0.068702,0.053435,-0.099237,-0.285400,-0.570312,0.746826,0.00,0.00,0.00
460,-0.022901,-0.076336,-0.038168,-0.291992,-0.564941,0.758301,0.00,0.00,0.00
461,-0.015267,0.145038,-0.015267,-0.282959,-0.561035,0.753662,0.00,0.00,0.00
462,-0.061069,0.122137,0.022901,-0.290283,-0.565186,0.748047,0.00,0.00,0.00
463,-0.083969,0.083969,-0.198473,-0.286133,-0.564209,0.754395,0.00,0.00,0.00
464,-0.099237,0.099237,0.007634,-0.296631,-0.568115,0.759277,0.00,0.00,0.00
465,-0.099237,-0.022901,-0.160305,-0.283447,-0.560547,0.756592,0.00,0.00,0.00
466,0.106870,-0.015267,-0.328244,-0.288330,-0.567383,0.754150,0.00,0.00,0.00
467,0.022901,-0.076336,-0.229008,-0.293945,-0.566406,0.760010,0.00,0.00,0.00
468,0.190840,-0.076336,-0.114504,-0.284180,-0.562012,0.756592,0.00,0.00,0.00
469,0.091603,-0.083969,-0.244275,-0.290039,-0.570557,0.754883,0.00,0.00,0.00
470,0.145038,0.091603,-0.229008,-0.297852,-0.566162,0.759033,0.00,0.00,0.00
471,-0.015267,-0.221374,-0.145038,-0.292725,-0.561523,0.754639,0.00,0.00,0.00
472,0.290076,-0.045802,-0.053435,-0.288574,-0.567383,0.757568,0.00,0.00,0.00
473,-0.030534,-0.160305,-0.374046,-0.285889,-0.562256,0.747803,0.00,0.00,0.00
474,-0.007634,0.000000,-0.251908,-0.289795,-0.562500,0.757812,0.00,0.00,0.00
475,0.152672,-0.022901,-0.076336,-0.289551,-0.564209,0.751709,0.00,0.00,0.00
476,0.183206,-0.038168,-0.030534,-0.288086,-0.568359,0.756836,0.00,0.00,0.00
477,0.106870,-0.030534,-0.129771,-0.290771,-0.562256,0.754150,0.00,0.00,0.00
478,0.007634,0.061069,-0.137405,-0.289062,-0.567627,0.754395,0.00,0.00,0.00
479,0.015267,0.007634,-0.091603,-0.288086,-0.561768,0.756836,0.00,0.00,0.00
480,0.076336,-0.045802,-0.053435,-0.290039,-0.569824,0.751221,0.00,0.00,0.00
481,0.007634,-0.045802,-0.160305,-0.290039,-0.562988,0.754395,0.00,0.00,0.00
482,-0.076336,-0.030534,-0.259542,-0.291992,-0.565430,0.754395,0.00,0.00,0.00
483,-0.015267,0.007634,-0.152672,-0.288574,-0.563477,0.751221,0.00,0.00,0.00
484,0.083969,-0.007634,-0.206107,-0.290771,-0.568115,0.756348,0.00,0.00,0.00
485,-0.061069,0.038168,-0.198473,-0.291016,-0.568848,0.764160,0.00,0.00,0.00
486,0.068702,-0.045802,-0.305344,-0.291016,-0.560791,0.757812,0.00,0.00,0.00
487,0.167939,-0.206107,-0.328244,-0.292969,-0.561768,0.763184,0.00,0.00,0.00
488,0.061069,-0.007634,-0.343511,-0.287354,-0.565674,0.757324,0.00,0.00,0.00
489,0.236641,-0.167939,-0.198473,-0.287109,-0.567383,0.757324,0.00,0.00,0.00
490,0.183206,-0.076336,-0.236641,-0.291016,-0.564453,0.758545,0.00,0.00,0.00
491,0.053435,-0.061069,-0.206107,-0.288574,-0.568115,0.760986,0.00,0.00,0.00
492,0.076336,-0.061069,-0.244275,-0.284912,-0.568848,0.753906,0.00,0.00,0.00
493,-0.122137,-0.015267,-0.221374,-0.284912,-0.562744,0.750488,0.00,0.00,0.00
494,-0.007634,-0.221374,-0.076336,-0.291992,-0.562988,0.759766,0.00,0.00,0.00
495,0.045802,-0.091603,-0.068702,-0.291992,-0.560303,0.763672,0.00,0.00,0.00
496,-0.022901,-0.061069,-0.206107,-0.298584,-0.565918,0.757080,0.00,0.00,0.00
497,-0.053435,0.053435,-0.152672,-0.291992,-0.564453,0.746582,0.00,0.00,0.00
498,-0.083969,0.076336,-0.030534,-0.283936,-0.567139,0.750977,0.00,0.00,0.00
499,0.030534,0.053435,-0.122137,-0.292480,-0.564453,0.751221,0.00,0.00,0.00
500,-0.061069,-0.076336,-0.160305,-0.292725,-0.565674,0.748779,0.00,0.00,0.00
501,0.022901,0.160305,-0.206107,-0.288818,-0.566895,0.756836,0.00,0.00,0.00
502,0.053435,0.038168,-0.038168,-0.290771,-0.563965,0.753906,0.00,0.00,0.00
503,-0.152672,0.022901,-0.167939,-0.291260,-0.565430,0.759766,0.00,0.00,0.00
504,-0.076336,-0.076336,-0.175573,-0.288330,-0.562988,0.753174,0.00,0.00,0.00
505,-0.022901,-0.083969,-0.122137,-0.289795,-0.567139,0.766602,0.00,0.00,0.00
506,0.022901,0.007634,-0.137405,-0.285156,-0.572021,0.753662,0.00,0.00,0.00
507,0.145038,-0.114504,-0.213740,-0.288574,-0.565674,0.753174,0.00,0.00,0.00
508,0.114504,0.007634,-0.297710,-0.291016,-0.564697,0.758789,0.00,0.00,0.00
509,0.122137,-0.244275,-0.198473,-0.296387,-0.567627,0.761475,0.00,0.00,0.00
510,0.137405,-0.099237,-0.282443,-0.289551,-0.567871,0.749756,0.00,0.00,0.00
511,0.198473,-0.251908,-0.404580,-0.291260,-0.560059,0.760254,0.00,0.00,0.00
512,0.190840,-0.137405,-0.351145,-0.287354,-0.561279,0.754395,0.00,0.00,0.00
513,0.045802,-0.206107,-0.297710,-0.280762,-0.566406,0.763428,0.00,0.00,0.00
514,0.145038,-0.175573,-0.259542,-0.292236,-0.557861,0.761719,0.00,0.00,0.00
515,0.038168,-0.244275,-0.167939,-0.291260,-0.571533,0.757812,0.00,0.00,0.00
516,0.297710,-0.076336,-0.343511,-0.291992,-0.562256,0.754150,0.00,0.00,0.00
517,0.061069,-0.007634,-0.343511,-0.290771,-0.565918,0.751709,0.00,0.00,0.00
518,0.083969,-0.167939,-0.328244,-0.285645,-0.566650,0.746582,0.00,0.00,0.00
519,0.129771,-0.137405,-0.358779,-0.289062,-0.563232,0.756348,0.00,0.00,0.00
520,0.175573,-0.206107,-0.244275,-0.292969,-0.556885,0.747314,0.00,0.00,0.00
521,0.030534,-0.152672,-0.221374,-0.292725,-0.562256,0.759033,0.00,0.00,0.00
522,0.053435,-0.114504,-0.236641,-0.291748,-0.562012,0.760986,0.00,0.00,0.00
523,0.083969,-0.160305,-0.175573,-0.287842,-0.562256,0.754883,0.00,0.00,0.00
524,0.145038,-0.198473,-0.274809,-0.284180,-0.567139,0.758301,0.00,0.00,0.00
525,0.137405,-0.183206,-0.335878,-0.284912,-0.565918,0.745361,0.00,0.00,0.00
526,0.091603,0.022901,-0.244275,-0.292480,-0.566162,0.757568,0.00,0.00,0.00
527,0.297710,0.068702,-0.175573,-0.287354,-0.568115,0.751953,0.00,0.00,0.00
528,0.076336,-0.053435,-0.106870,-0.287109,-0.563477,0.764160,0.00,0.00,0.00
529,0.114504,0.030534,-0.251908,-0.290527,-0.567627,0.756104,0.00,0.00,0.00
530,-0.022901,0.022901,-0.145038,-0.283447,-0.566162,0.761230,0.00,0.00,0.00
531,-0.114504,0.106870,-0.099237,-0.290039,-0.562744,0.756348,0.00,0.00,0.00
532,-0.145038,0.007634,-0.030534,-0.286133,-0.563965,0.747070,0.00,0.00,0.00
533,-0.022901,0.022901,-0.068702,-0.281494,-0.565430,0.753662,0.00,0.00,0.00
534,-0.175573,0.213740,0.053435,-0.288818,-0.565674,0.759521,0.00,0.00,0.00
535,-0.320611,0.244275,-0.007634,-0.286377,-0.569092,0.762451,0.00,0.00,0.00
536,-0.129771,0.267176,-0.129771,-0.284424,-0.562988,0.757812,0.00,0.00,0.00
537,-0.076336,0.297710,-0.030534,-0.284180,-0.562500,0.750000,0.00,0.00,0.00
538,-0.160305,0.412214,0.038168,-0.289307,-0.560303,0.756836,0.00,0.00,0.00
539,-0.007634,0.419847,0.061069,-0.287842,-0.558838,0.760010,0.00,0.00,0.00
540,-0.267176,0.381679,-0.030534,-0.288818,-0.564453,0.754395,0.00,0.00,0.00
541,-0.183206,0.221374,0.206107,-0.286621,-0.567139,0.751953,0.00,0.00,0.00
542,-0.259542,0.183206,0.114504,-0.283691,-0.566650,0.749023,0.00,0.00,0.00
543,-0.122137,0.114504,0.068702,-0.290039,-0.560303,0.766357,0.00,0.00,0.00
544,-0.099237,0.137405,-0.030534,-0.287109,-0.560303,0.754883,0.00,0.00,0.00
545,-0.213740,0.236641,0.152672,-0.292236,-0.569824,0.756348,0.00,0.00,0.00
546,0.022901,0.190840,0.106870,-0.289551,-0.563965,0.759521,0.00,0.00,0.00
547,-0.076336,0.274809,-0.022901,-0.299561,-0.567139,0.759521,0.00,0.00,0.00
548,-0.091603,0.198473,0.106870,-0.284668,-0.564453,0.754639,0.00,0.00,0.00
549,-0.145038,0.351145,0.030534,-0.290527,-0.566650,0.752930,0.00,0.00,0.00
550,-0.022901,0.320611,0.068702,-0.284912,-0.566406,0.759521,0.00,0.00,0.00
551,-0.137405,0.312977,-0.068702,-0.287109,-0.568848,0.761719,0.00,0.00,0.00
552,-0.198473,0.106870,0.190840,-0.295654,-0.565430,0.760254,0.00,0.00,0.00
553,-0.068702,0.244275,-0.175573,-0.284912,-0.568115,0.754150,0.00,0.00,0.00
554,-0.106870,0.297710,-0.045802,-0.290283,-0.565674,0.750732,0.00,0.00,0.00
555,-0.015267,0.328244,-0.183206,-0.288818,-0.563721,0.758789,0.00,0.00,0.00
556,-0.145038,0.358779,0.076336,-0.290283,-0.569092,0.759277,0.00,0.00,0.00
557,-0.229008,0.412214,0.175573,-0.294434,-0.563232,0.752930,0.00,0.00,0.00
558,-0.167939,0.236641,0.137405,-0.293457,-0.565918,0.754395,0.00,0.00,0.00
559,-0.274809,0.450382,0.015267,-0.290771,-0.560303,0.758057,0.00,0.00,0.00
560,-0.259542,0.343511,0.190840,-0.291016,-0.563232,0.768799,0.00,0.00,0.00
561,-0.106870,0.381679,0.106870,-0.290283,-0.563721,0.757324,0.00,0.00,0.00
562,-0.152672,0.290076,0.183206,-0.288330,-0.564697,0.753662,0.00,0.00,0.00
563,-0.175573,0.213740,-0.114504,-0.287354,-0.567871,0.755371,0.00,0.00,0.00
564,0.076336,0.190840,-0.083969,-0.293457,-0.561523,0.746094,0.00,0.00,0.00
565,-0.129771,0.167939,-0.106870,-0.294678,-0.566895,0.752686,0.00,0.00,0.00
566,-0.183206,0.129771,-0.251908,-0.292969,-0.567871,0.753662,0.00,0.00,0.00
567,0.045802,0.122137,-0.152672,-0.288330,-0.562256,0.745850,0.00,0.00,0.00
568,0.045802,-0.206107,-0.335878,-0.291992,-0.563232,0.754150,0.00,0.00,0.00
569,0.083969,-0.137405,-0.259542,-0.293945,-0.564209,0.761963,0.00,0.00,0.00
570,0.244275,-0.259542,-0.320611,-0.294678,-0.564453,0.760986,0.00,0.00,0.00
571,0.160305,-0.328244,-0.198473,-0.297852,-0.563232,0.757812,0.00,0.00,0.00
572,0.381679,-0.290076,-0.381679,-0.285645,-0.561768,0.750000,0.00,0.00,0.00
573,0.312977,-0.419847,-0.396947,-0.286621,-0.567627,0.758301,0.00,0.00,0.00
574,0.114504,-0.450382,-0.496183,-0.293457,-0.560303,0.753174,0.00,0.00,0.00
575,0.312977,-0.374046,-0.519084,-0.290039,-0.568848,0.757324,0.00,0.00,0.00
576,0.343511,-0.503817,-0.381679,-0.295654,-0.563965,0.756592,0.00,0.00,0.00
577,0.335878,-0.496183,-0.603053,-0.288330,-0.565674,0.759766,0.00,0.00,0.00
578,0.267176,-0.404580,-0.290076,-0.286621,-0.569092,0.755371,0.00,0.00,0.00
579,0.198473,-0.351145,-0.412214,-0.288818,-0.559570,0.749756,0.00,0.00,0.00
580,0.236641,-0.458015,-0.435115,-0.289551,-0.560547,0.756104,0.00,0.00,0.00
581,0.320611,-0.412214,-0.404580,-0.288574,-0.565186,0.769775,0.00,0.00,0.00
582,0.137405,-0.427481,-0.480916,-0.285889,-0.562988,0.758789,0.00,0.00,0.00
583,0.267176,-0.480916,-0.526718,-0.289551,-0.566650,0.753662,0.00,0.00,0.00
584,0.244275,-0.511450,-0.297710,-0.290039,-0.568359,0.767578,0.00,0.00,0.00
585,0.274809,-0.671756,-0.503817,-0.289062,-0.566650,0.754883,0.00,0.00,0.00
586,0.229008,-0.572519,-0.526718,-0.283691,-0.564941,0.757080,0.00,0.00,0.00
587,0.129771,-0.419847,-0.480916,-0.287354,-0.565674,0.758301,0.00,0.00,0.00
588,0.099237,-0.129771,-0.419847,-0.283936,-0.563232,0.762207,0.00,0.00,0.00
589,0.297710,-0.335878,-0.412214,-0.290283,-0.565430,0.763672,0.00,0.00,0.00
590,0.229008,-0.427481,-0.419847,-0.290527,-0.566406,0.757568,0.00,0.00,0.00
591,0.206107,-0.282443,-0.335878,-0.289307,-0.566650,0.763916,0.00,0.00,0.00
592,0.236641,-0.435115,-0.396947,-0.287598,-0.562256,0.757568,0.00,0.00,0.00
593,0.183206,-0.335878,-0.267176,-0.283691,-0.566162,0.758301,0.00,0.00,0.00
594,0.297710,-0.145038,-0.267176,-0.282227,-0.565430,0.758789,0.00,0.00,0.00
595,0.091603,-0.274809,-0.343511,-0.287842,-0.562500,0.753662,0.00,0.00,0.00
596,0.244275,-0.129771,-0.206107,-0.290283,-0.563232,0.758057,0.00,0.00,0.00
597,0.198473,-0.160305,-0.183206,-0.282959,-0.568848,0.750488,0.00,0.00,0.00
598,0.221374,-0.015267,-0.229008,-0.290527,-0.567871,0.761475,0.00,0.00,0.00
599,0.122137,-0.091603,-0.160305,-0.287354,-0.566895,0.755859,0.00,0.00,0.00
600,0.045802,-0.114504,-0.244275,-0.280518,-0.562988,0.760742,0.00,0.00,0.00
601,0.061069,0.000000,-0.190840,-0.288330,-0.565430,0.753418,0.00,0.00,0.00
602,-0.015267,-0.106870,-0.190840,-0.292725,-0.561523,0.760254,0.00,0.00,0.00
603,0.106870,0.091603,-0.274809,-0.286133,-0.567871,0.752686,0.00,0.00,0.00
604,-0.030534,-0.099237,-0.015267,-0.285889,-0.564209,0.751953,0.00,0.00,0.00
605,-0.030534,0.122137,-0.190840,-0.286133,-0.562256,0.763428,0.00,0.00,0.00
606,-0.030534,0.045802,-0.114504,-0.289062,-0.567139,0.754883,0.00,0.00,0.00
607,-0.015267,-0.045802,-0.137405,-0.289062,-0.560547,0.756348,0.00,0.00,0.00
608,0.007634,0.083969,-0.038168,-0.289307,-0.560547,0.759033,0.00,0.00,0.00
609,-0.106870,0.160305,-0.038168,-0.284912,-0.566895,0.750732,0.00,0.00,0.00
610,-0.129771,0.229008,0.099237,-0.287598,-0.572510,0.758301,0.00,0.00,0.00
611,-0.083969,0.099237,0.000000,-0.288574,-0.567627,0.755615,0.00,0.00,0.00
612,-0.167939,0.236641,-0.053435,-0.294189,-0.567139,0.760742,0.00,0.00,0.00
613,-0.175573,-0.007634,-0.091603,-0.287598,-0.564453,0.757812,0.00,0.00,0.00
614,-0.007634,0.221374,0.061069,-0.285889,-0.565918,0.751953,0.00,0.00,0.00
615,-0.167939,-0.076336,-0.152672,-0.288818,-0.561035,0.744629,0.00,0.00,0.00
616,-0.061069,0.068702,-0.221374,-0.292725,-0.567139,0.755859,0.00,0.00,0.00
617,-0.061069,0.099237,-0.106870,-0.290283,-0.567139,0.750244,0.00,0.00,0.00
618,-0.038168,0.137405,-0.068702,-0.289551,-0.565430,0.759521,0.00,0.00,0.00
619,0.122137,0.007634,-0.145038,-0.287109,-0.569336,0.760498,0.00,0.00,0.00
620,-0.045802,-0.068702,-0.076336,-0.289551,-0.567383,0.761475,0.00,0.00,0.00
621,-0.076336,-0.022901,-0.167939,-0.290527,-0.563721,0.755615,0.00,0.00,0.00
622,-0.091603,-0.053435,-0.137405,-0.293945,-0.562256,0.747314,0.00,0.00,0.00
623,-0.045802,-0.206107,-0.114504,-0.296631,-0.567627,0.757080,0.00,0.00,0.00
624,0.030534,-0.015267,-0.206107,-0.287842,-0.564941,0.764404,0.00,0.00,0.00
625,0.106870,-0.106870,-0.122137,-0.287842,-0.569824,0.751221,0.00,0.00,0.00
626,-0.122137,-0.175573,0.038168,-0.294434,-0.562988,0.759521,0.00,0.00,0.00
627,0.099237,0.083969,-0.221374,-0.280518,-0.565186,0.769043,0.00,0.00,0.00
628,0.099237,-0.068702,-0.160305,-0.302734,-0.560791,0.754883,0.00,0.00,0.00
629,0.106870,-0.236641,-0.229008,-0.289062,-0.562988,0.757080,0.00,0.00,0.00
630,-0.038168,-0.190840,-0.305344,-0.283203,-0.567139,0.761719,0.00,0.00,0.00
631,0.038168,-0.167939,-0.290076,-0.293457,-0.564697,0.755859,0.00,0.00,0.00
632,0.175573,-0.358779,-0.190840,-0.284424,-0.562988,0.753662,0.00,0.00,0.00
633,0.190840,-0.274809,-0.480916,-0.289551,-0.566162,0.753174,0.00,0.00,0.00
634,0.122137,-0.259542,-0.366412,-0.291260,-0.567383,0.750244,0.00,0.00,0.00
635,0.458015,-0.358779,-0.297710,-0.288086,-0.559082,0.754639,0.00,0.00,0.00
636,0.175573,-0.305344,-0.335878,-0.291748,-0.562256,0.759033,0.00,0.00,0.00
637,0.282443,-0.320611,-0.328244,-0.290771,-0.568359,0.753174,0.00,0.00,0.00
638,0.114504,-0.526718,-0.198473,-0.288818,-0.561768,0.750488,0.00,0.00,0.00
639,0.312977,-0.648855,-0.557252,-0.294189,-0.565674,0.752441,0.00,0.00,0.00
640,0.366412,-0.961832,-0.496183,-0.291260,-0.563721,0.751465,0.00,0.00,0.00
641,0.625954,-1.129771,-0.786260,-0.288574,-0.570068,0.746582,0.00,0.00,0.00
642,0.648855,-1.160305,-0.748092,-0.291504,-0.568115,0.754150,0.00,0.00,0.00
643,0.740458,-1.175573,-0.900763,-0.291992,-0.565674,0.746826,0.00,0.00,0.00
644,0.763359,-1.244275,-0.793893,-0.287842,-0.568359,0.759766,0.00,0.00,0.00
645,0.610687,-1.236641,-0.770992,-0.285156,-0.562744,0.755127,0.00,0.00,0.00
646,0.641221,-1.015267,-0.824427,-0.282471,-0.567871,0.756348,0.00,0.00,0.00
647,0.458015,-0.870229,-0.618321,-0.281494,-0.571045,0.763916,0.00,0.00,0.00
648,0.564885,-0.694656,-0.358779,-0.280518,-0.562012,0.747803,0.00,0.00,0.00
649,0.244275,-0.511450,-0.366412,-0.285400,-0.567383,0.751709,0.00,0.00,0.00
650,0.251908,-0.381679,-0.641221,-0.285400,-0.558838,0.756104,0.00,0.00,0.00
651,0.000000,-0.251908,-0.152672,-0.281494,-0.566650,0.758057,0.00,0.00,0.00
652,0.160305,-0.122137,-0.175573,-0.282959,-0.566406,0.755859,0.00,0.00,0.00
653,-0.068702,-0.022901,-0.244275,-0.283447,-0.562012,0.754150,0.00,0.00,0.00
654,-0.083969,0.015267,-0.114504,-0.283936,-0.566162,0.758057,0.00,0.00,0.00
655,-0.091603,-0.076336,-0.244275,-0.285645,-0.571289,0.754150,0.00,0.00,0.00
656,0.053435,0.038168,-0.175573,-0.290039,-0.564697,0.750977,0.00,0.00,0.00
657,0.007634,-0.068702,-0.229008,-0.289307,-0.562500,0.756104,0.00,0.00,0.00
658,-0.007634,-0.083969,-0.221374,-0.283691,-0.562988,0.755371,0.00,0.00,0.00
659,0.091603,-0.022901,-0.183206,-0.288330,-0.562744,0.757080,0.00,0.00,0.00
660,-0.038168,0.053435,-0.167939,-0.284180,-0.564453,0.749023,0.00,0.00,0.00
661,-0.015267,0.053435,-0.167939,-0.286621,-0.563721,0.750732,0.00,0.00,0.00
662,-0.022901,0.000000,-0.137405,-0.281494,-0.570557,0.758057,0.00,0.00,0.00
663,-0.106870,0.038168,-0.106870,-0.285889,-0.562744,0.757080,0.00,0.00,0.00
664,-0.091603,-0.007634,-0.030534,-0.288086,-0.566162,0.750488,0.00,0.00,0.00
665,-0.061069,0.106870,-0.160305,-0.288574,-0.564209,0.758057,0.00,0.00,0.00
666,-0.099237,0.106870,-0.091603,-0.290039,-0.561035,0.754639,0.00,0.00,0.00
667,-0.083969,0.122137,-0.198473,-0.284180,-0.565186,0.762207,0.00,0.00,0.00
668,-0.129771,0.160305,-0.022901,-0.282959,-0.569580,0.760498,0.00,0.00,0.00
669,-0.167939,0.328244,0.015267,-0.284912,-0.561523,0.753174,0.00,0.00,0.00
670,-0.206107,0.297710,-0.030534,-0.288086,-0.559570,0.755615,0.00,0.00,0.00
671,-0.198473,0.206107,-0.045802,-0.289062,-0.563477,0.762207,0.00,0.00,0.00
672,-0.137405,0.213740,0.000000,-0.289062,-0.564453,0.755615,0.00,0.00,0.00
673,-0.122137,0.267176,-0.076336,-0.285645,-0.565918,0.755371,0.00,0.00,0.00
674,-0.099237,0.145038,-0.190840,-0.292480,-0.566406,0.756836,0.00,0.00,0.00
675,-0.106870,0.152672,-0.229008,-0.288818,-0.561035,0.758301,0.00,0.00,0.00
676,0.038168,0.053435,-0.160305,-0.289795,-0.562256,0.764648,0.00,0.00,0.00
677,0.022901,0.114504,-0.129771,-0.288330,-0.562012,0.759521,0.00,0.00,0.00
678,-0.251908,-0.106870,-0.106870,-0.289795,-0.566650,0.762207,0.00,0.00,0.00
679,-0.099237,-0.061069,-0.244275,-0.288086,-0.564941,0.746338,0.00,0.00,0.00
680,-0.122137,0.106870,-0.343511,-0.285156,-0.563965,0.749512,0.00,0.00,0.00
681,0.145038,0.061069,-0.175573,-0.292236,-0.560303,0.752441,0.00,0.00,0.00
682,0.000000,-0.167939,-0.152672,-0.289062,-0.559082,0.758301,0.00,0.00,0.00
683,-0.061069,-0.015267,-0.091603,-0.292480,-0.564209,0.754150,0.00,0.00,0.00
684,0.038168,0.053435,-0.145038,-0.287842,-0.564941,0.759766,0.00,0.00,0.00
685,0.160305,-0.183206,-0.213740,-0.289551,-0.566162,0.754150,0.00,0.00,0.00
686,0.167939,-0.122137,-0.305344,-0.291748,-0.566406,0.754639,0.00,0.00,0.00
687,0.259542,-0.122137,-0.374046,-0.289062,-0.565430,0.763672,0.00,0.00,0.00
688,0.099237,-0.167939,-0.351145,-0.288574,-0.565186,0.767578,0.00,0.00,0.00
689,0.328244,-0.259542,-0.274809,-0.293457,-0.567139,0.755371,0.00,0.00,0.00
690,0.343511,-0.496183,-0.519084,-0.292236,-0.567139,0.753418,0.00,0.00,0.00
691,0.320611,-0.580153,-0.419847,-0.290527,-0.562256,0.751709,0.00,0.00,0.00
692,0.297710,-0.725191,-0.603053,-0.290283,-0.564941,0.756348,0.00,0.00,0.00
693,0.274809,-0.625954,-0.541985,-0.291016,-0.571045,0.762207,0.00,0.00,0.00
694,0.244275,-0.465649,-0.458015,-0.287354,-0.563232,0.757812,0.00,0.00,0.00
695,0.351145,-0.503817,-0.503817,-0.285645,-0.560303,0.763428,0.00,0.00,0.00
696,0.312977,-0.496183,-0.595420,-0.288330,-0.565430,0.761475,0.00,0.00,0.00
697,0.267176,-0.549618,-0.473282,-0.288330,-0.561523,0.758301,0.00,0.00,0.00
698,0.435115,-0.549618,-0.496183,-0.286865,-0.562256,0.750488,0.00,0.00,0.00
699,0.381679,-0.511450,-0.618321,-0.281982,-0.564209,0.762939,0.00,0.00,0.00
700,0.335878,-0.511450,-0.519084,-0.286865,-0.562256,0.756836,0.00,0.00,0.00
701,0.183206,-0.503817,-0.404580,-0.282471,-0.562988,0.757324,0.00,0.00,0.00
702,0.160305,-0.366412,-0.488550,-0.293213,-0.566162,0.759521,0.00,0.00,0.00
703,0.129771,-0.282443,-0.412214,-0.288330,-0.557861,0.755127,0.00,0.00,0.00
704,0.267176,-0.465649,-0.404580,-0.285889,-0.565918,0.760254,0.00,0.00,0.00
705,0.076336,-0.229008,-0.259542,-0.282471,-0.564941,0.767090,0.00,0.00,0.00
706,0.198473,-0.305344,-0.190840,-0.284912,-0.566162,0.765869,0.00,0.00,0.00
707,0.129771,-0.122137,-0.343511,-0.287109,-0.569092,0.758545,0.00,0.00,0.00
708,0.045802,-0.114504,-0.343511,-0.283447,-0.560547,0.759766,0.00,0.00,0.00
709,0.137405,-0.236641,-0.305344,-0.286621,-0.560303,0.760254,0.00,0.00,0.00
710,0.000000,-0.206107,-0.183206,-0.289551,-0.563965,0.753418,0.00,0.00,0.00
711,0.000000,-0.152672,-0.282443,-0.284180,-0.562500,0.757568,0.00,0.00,0.00
712,0.053435,-0.007634,-0.160305,-0.281250,-0.563721,0.769043,0.00,0.00,0.00
713,0.099237,-0.045802,-0.175573,-0.287109,-0.564697,0.758057,0.00,0.00,0.00
714,0.022901,-0.038168,-0.290076,-0.283203,-0.559082,0.759277,0.00,0.00,0.00
715,0.038168,-0.114504,-0.015267,-0.286133,-0.566895,0.756104,0.00,0.00,0.00
716,0.022901,0.061069,-0.229008,-0.283691,-0.566895,0.756104,0.00,0.00,0.00
717,-0.045802,-0.198473,-0.190840,-0.281250,-0.566895,0.756592,0.00,0.00,0.00
718,0.183206,-0.015267,-0.068702,-0.285156,-0.563721,0.749756,0.00,0.00,0.00
719,-0.076336,0.045802,-0.076336,-0.288818,-0.562500,0.765381,0.00,0.00,0.00
720,0.053435,-0.022901,-0.099237,-0.293457,-0.562256,0.758301,0.00,0.00,0.00
721,0.083969,-0.061069,-0.198473,-0.289551,-0.568848,0.755615,0.00,0.00,0.00
722,0.030534,-0.061069,0.000000,-0.288330,-0.566406,0.758057,0.00,0.00,0.00
723,-0.068702,0.099237,-0.076336,-0.285400,-0.562744,0.755859,0.00,0.00,0.00
724,0.007634,-0.015267,-0.282443,-0.289795,-0.566406,0.756836,0.00,0.00,0.00
725,-0.076336,0.000000,-0.183206,-0.288818,-0.558838,0.753906,0.00,0.00,0.00
726,0.007634,-0.206107,-0.129771,-0.285889,-0.564697,0.758057,0.00,0.00,0.00
727,0.106870,-0.007634,-0.221374,-0.282959,-0.567383,0.755371,0.00,0.00,0.00
728,0.145038,0.122137,-0.022901,-0.289307,-0.565186,0.757568,0.00,0.00,0.00
729,0.099237,0.106870,-0.328244,-0.292725,-0.565674,0.758057,0.00,0.00,0.00
730,-0.068702,-0.129771,-0.129771,-0.290771,-0.564697,0.760986,0.00,0.00,0.00
731,0.114504,-0.068702,-0.015267,-0.280762,-0.564941,0.753906,0.00,0.00,0.00
732,-0.083969,0.129771,-0.221374,-0.280273,-0.565186,0.750000,0.00,0.00,0.00
733,-0.122137,0.038168,-0.137405,-0.289551,-0.566650,0.757568,0.00,0.00,0.00
734,-0.083969,0.251908,-0.206107,-0.286865,-0.564941,0.758057,0.00,0.00,0.00
735,-0.251908,-0.061069,-0.099237,-0.283203,-0.562256,0.758301,0.00,0.00,0.00
736,-0.122137,-0.061069,-0.419847,-0.291992,-0.568115,0.760254,0.00,0.00,0.00
737,-0.274809,0.068702,-0.229008,-0.289307,-0.570068,0.760742,0.00,0.00,0.00
738,-0.175573,0.206107,-0.091603,-0.287598,-0.562744,0.750732,0.00,0.00,0.00
739,-0.091603,0.091603,-0.137405,-0.288086,-0.562256,0.758789,0.00,0.00,0.00
740,0.068702,0.106870,-0.236641,-0.281738,-0.568115,0.761719,0.00,0.00,0.00
741,-0.145038,0.167939,0.038168,-0.289551,-0.558594,0.751953,0.00,0.00,0.00
742,-0.175573,0.053435,-0.091603,-0.291260,-0.568359,0.767578,0.00,0.00,0.00
743,-0.053435,0.007634,-0.183206,-0.282959,-0.567139,0.764160,0.00,0.00,0.00
744,-0.099237,0.167939,-0.251908,-0.278809,-0.566650,0.747070,0.00,0.00,0.00
745,0.022901,0.007634,-0.022901,-0.293945,-0.560303,0.752930,0.00,0.00,0.00
746,-0.038168,-0.076336,-0.160305,-0.289795,-0.564697,0.757812,0.00,0.00,0.00
747,-0.129771,0.015267,-0.145038,-0.289062,-0.564453,0.760010,0.00,0.00,0.00
748,0.007634,-0.053435,-0.160305,-0.286621,-0.562256,0.759277,0.00,0.00,0.00
749,-0.045802,-0.045802,-0.244275,-0.293213,-0.564209,0.751709,0.00,0.00,0.00
750,-0.061069,-0.129771,-0.145038,-0.286621,-0.560303,0.752930,0.00,0.00,0.00
751,0.061069,0.114504,-0.198473,-0.285889,-0.567627,0.755371,0.00,0.00,0.00
752,0.091603,-0.068702,-0.053435,-0.289062,-0.570557,0.760010,0.00,0.00,0.00
753,-0.083969,-0.015267,-0.114504,-0.291504,-0.563477,0.758301,0.00,0.00,0.00
754,-0.007634,-0.030534,-0.106870,-0.287598,-0.566406,0.755615,0.00,0.00,0.00
755,0.007634,0.061069,-0.091603,-0.285400,-0.561035,0.760254,0.00,0.00,0.00
756,-0.114504,0.229008,-0.061069,-0.282959,-0.565186,0.747559,0.00,0.00,0.00
757,-0.122137,0.251908,-0.106870,-0.284668,-0.568115,0.759766,0.00,0.00,0.00
758,0.129771,0.312977,-0.053435,-0.288818,-0.566650,0.756592,0.00,0.00,0.00
759,-0.007634,0.198473,-0.145038,-0.289551,-0.560059,0.762695,0.00,0.00,0.00
760,-0.022901,0.465649,0.030534,-0.289551,-0.565186,0.758301,0.00,0.00,0.00
761,-0.221374,0.358779,0.190840,-0.288330,-0.568848,0.755371,0.00,0.00,0.00
762,-0.274809,0.290076,0.099237,-0.289551,-0.568115,0.748291,0.00,0.00,0.00
763,-0.038168,0.358779,0.022901,-0.291992,-0.568604,0.762695,0.00,0.00,0.00
764,-0.076336,0.480916,0.061069,-0.280762,-0.561279,0.756592,0.00,0.00,0.00
765,-0.435115,0.641221,0.183206,-0.283203,-0.569092,0.752197,0.00,0.00,0.00
766,-0.335878,0.702290,0.145038,-0.285400,-0.564453,0.760010,0.00,0.00,0.00
767,-0.312977,0.702290,0.358779,-0.287109,-0.563477,0.755371,0.00,0.00,0.00
768,-0.320611,0.503817,0.129771,-0.282959,-0.568359,0.756836,0.00,0.00,0.00
769,-0.221374,0.480916,0.076336,-0.290771,-0.562012,0.753906,0.00,0.00,0.00
770,-0.137405,0.595420,0.259542,-0.287109,-0.567627,0.759766,0.00,0.00,0.00
771,-0.206107,0.404580,0.167939,-0.291260,-0.564209,0.758545,0.00,0.00,0.00
772,-0.183206,0.282443,-0.068702,-0.294922,-0.568115,0.759033,0.00,0.00,0.00
773,-0.167939,0.145038,-0.083969,-0.288574,-0.567139,0.758301,0.00,0.00,0.00
774,-0.106870,0.358779,0.061069,-0.288086,-0.563232,0.754639,0.00,0.00,0.00
775,-0.152672,0.297710,-0.007634,-0.285645,-0.568115,0.750977,0.00,0.00,0.00
776,-0.061069,0.236641,-0.114504,-0.288574,-0.562744,0.758301,0.00,0.00,0.00
777,-0.076336,0.229008,0.030534,-0.292480,-0.569336,0.754639,0.00,0.00,0.00
778,-0.129771,0.328244,-0.015267,-0.284668,-0.562012,0.755859,0.00,0.00,0.00
779,-0.274809,0.366412,-0.038168,-0.289062,-0.567383,0.753174,0.00,0.00,0.00
780,-0.175573,0.274809,-0.038168,-0.289062,-0.567139,0.761719,0.00,0.00,0.00
781,-0.297710,0.282443,0.068702,-0.286377,-0.563965,0.748291,0.00,0.00,0.00
782,-0.206107,0.213740,0.083969,-0.288330,-0.562012,0.761719,0.00,0.00,0.00
783,-0.290076,0.259542,-0.045802,-0.286621,-0.567627,0.755615,0.00,0.00,0.00
784,-0.145038,0.412214,-0.045802,-0.291748,-0.564209,0.757812,0.00,0.00,0.00
785,-0.190840,0.427481,-0.045802,-0.291992,-0.565918,0.757812,0.00,0.00,0.00
786,-0.145038,0.213740,0.053435,-0.289551,-0.560791,0.762939,0.00,0.00,0.00
787,-0.076336,-0.076336,-0.076336,-0.289795,-0.562012,0.759521,0.00,0.00,0.00
788,-0.068702,0.145038,-0.053435,-0.289551,-0.568359,0.756104,0.00,0.00,0.00
789,-0.083969,0.129771,-0.129771,-0.287842,-0.566162,0.761963,0.00,0.00,0.00
790,-0.083969,0.083969,0.007634,-0.292725,-0.565674,0.756348,0.00,0.00,0.00
791,-0.106870,0.183206,0.030534,-0.286865,-0.564941,0.753418,0.00,0.00,0.00
792,-0.022901,0.183206,-0.022901,-0.285400,-0.564453,0.763428,0.00,0.00,0.00
793,-0.145038,0.236641,-0.091603,-0.286621,-0.562988,0.758057,0.00,0.00,0.00
794,-0.022901,0.053435,-0.221374,-0.288818,-0.567383,0.757080,0.00,0.00,0.00
795,-0.083969,0.114504,-0.106870,-0.287598,-0.568359,0.763916,0.00,0.00,0.00
796,-0.145038,0.007634,0.106870,-0.292480,-0.563477,0.751221,0.00,0.00,0.00
797,-0.137405,0.229008,-0.213740,-0.291992,-0.567871,0.756104,0.00,0.00,0.00
798,-0.061069,0.190840,0.099237,-0.285889,-0.570801,0.759521,0.00,0.00,0.00
799,-0.045802,0.244275,0.038168,-0.289062,-0.566895,0.761719,0.00,0.00,0.00
800,-0.068702,0.213740,0.015267,-0.287842,-0.563721,0.745605,0.00,0.00,0.00
801,-0.099237,0.213740,0.068702,-0.289307,-0.566895,0.751221,0.00,0.00,0.00
802,0.015267,0.221374,0.076336,-0.289307,-0.569092,0.755615,0.00,0.00,0.00
803,-0.206107,0.206107,-0.030534,-0.291748,-0.565918,0.752930,0.00,0.00,0.00
804,-0.129771,0.328244,0.106870,-0.278809,-0.563232,0.751953,0.00,0.00,0.00
805,-0.221374,0.274809,0.145038,-0.294922,-0.557617,0.758545,0.00,0.00,0.00
806,-0.137405,0.175573,-0.030534,-0.288330,-0.569336,0.757812,0.00,0.00,0.00
807,-0.129771,0.351145,0.061069,-0.289551,-0.562744,0.758057,0.00,0.00,0.00
808,-0.290076,0.343511,-0.061069,-0.290771,-0.562012,0.752197,0.00,0.00,0.00
809,-0.068702,0.274809,0.106870,-0.283447,-0.559326,0.758789,0.00,0.00,0.00
810,-0.106870,0.343511,0.053435,-0.285889,-0.570068,0.753662,0.00,0.00,0.00
811,-0.137405,0.267176,0.190840,-0.282471,-0.569824,0.760742,0.00,0.00,0.00
812,-0.007634,0.389313,0.000000,-0.289551,-0.565186,0.754639,0.00,0.00,0.00
813,-0.213740,0.366412,0.045802,-0.287842,-0.565430,0.751465,0.00,0.00,0.00
814,-0.091603,0.358779,0.053435,-0.286133,-0.565918,0.761963,0.00,0.00,0.00
815,-0.099237,0.175573,0.053435,-0.287842,-0.561523,0.757568,0.00,0.00,0.00
816,-0.122137,0.122137,0.091603,-0.297852,-0.563721,0.749023,0.00,0.00,0.00
817,-0.114504,0.122137,-0.114504,-0.294189,-0.571045,0.755859,0.00,0.00,0.00
818,0.000000,0.221374,-0.007634,-0.286377,-0.568359,0.756348,0.00,0.00,0.00
819,-0.190840,0.091603,0.061069,-0.293457,-0.560791,0.761230,0.00,0.00,0.00
820,-0.045802,0.198473,0.099237,-0.291992,-0.560059,0.766846,0.00,0.00,0.00
821,-0.167939,0.251908,0.053435,-0.282715,-0.566162,0.759521,0.00,0.00,0.00
822,-0.374046,0.045802,0.198473,-0.289795,-0.568604,0.758057,0.00,0.00,0.00
823,-0.221374,0.274809,0.335878,-0.288330,-0.563232,0.755127,0.00,0.00,0.00
824,-0.259542,0.190840,0.152672,-0.287598,-0.570557,0.750732,0.00,0.00,0.00
825,-0.114504,0.419847,0.122137,-0.287842,-0.562744,0.755859,0.00,0.00,0.00
826,-0.427481,0.213740,0.145038,-0.292969,-0.560059,0.769287,0.00,0.00,0.00
827,-0.137405,0.366412,0.076336,-0.292480,-0.562500,0.758301,0.00,0.00,0.00
828,-0.374046,0.259542,-0.114504,-0.295166,-0.563232,0.752197,0.00,0.00,0.00
829,-0.328244,0.335878,0.053435,-0.289062,-0.562744,0.751221,0.00,0.00,0.00
830,-0.404580,-0.007634,0.068702,-0.291748,-0.562256,0.752441,0.00,0.00,0.00
831,-0.251908,0.251908,0.083969,-0.292236,-0.572266,0.752441,0.00,0.00,0.00
832,-0.335878,0.267176,0.068702,-0.282959,-0.564453,0.759033,0.00,0.00,0.00
833,-0.381679,0.267176,0.213740,-0.290771,-0.563965,0.763184,0.00,0.00,0.00
834,-0.419847,0.435115,0.213740,-0.290039,-0.569824,0.756592,0.00,0.00,0.00
835,-0.419847,0.358779,0.297710,-0.284912,-0.565430,0.755371,0.00,0.00,0.00
836,-0.473282,0.564885,0.312977,-0.289062,-0.563965,0.762451,0.00,0.00,0.00
837,-0.480916,0.404580,0.137405,-0.285156,-0.562256,0.744873,0.00,0.00,0.00
838,-0.396947,0.450382,0.190840,-0.290771,-0.567871,0.761475,0.00,0.00,0.00
839,-0.458015,0.656489,0.221374,-0.290039,-0.561523,0.761719,0.00,0.00,0.00
840,-0.587786,0.488550,0.297710,-0.288574,-0.566650,0.766602,0.00,0.00,0.00
841,-0.442748,0.625954,0.229008,-0.288818,-0.569336,0.754395,0.00,0.00,0.00
842,-0.366412,0.610687,0.221374,-0.287354,-0.562012,0.761230,0.00,0.00,0.00
843,-0.396947,0.648855,0.312977,-0.286621,-0.568848,0.759521,0.00,0.00,0.00
844,-0.465649,0.740458,0.282443,-0.292480,-0.568359,0.756592,0.00,0.00,0.00
845,-0.557252,0.641221,0.267176,-0.287354,-0.562500,0.758301,0.00,0.00,0.00
846,-0.534351,0.564885,0.404580,-0.291504,-0.564209,0.748047,0.00,0.00,0.00
847,-0.625954,0.641221,0.427481,-0.292480,-0.563477,0.754883,0.00,0.00,0.00
848,-0.641221,0.763359,0.206107,-0.293457,-0.566895,0.758789,0.00,0.00,0.00
849,-0.496183,0.564885,0.404580,-0.289062,-0.562256,0.747803,0.00,0.00,0.00
850,-0.480916,0.335878,0.297710,-0.289551,-0.560303,0.749512,0.00,0.00,0.00
851,-0.435115,0.511450,0.198473,-0.299072,-0.570068,0.758545,0.00,0.00,0.00
852,-0.396947,0.427481,0.274809,-0.295898,-0.565186,0.757812,0.00,0.00,0.00
853,-0.389313,0.274809,0.061069,-0.292969,-0.567139,0.755371,0.00,0.00,0.00
854,-0.404580,0.320611,0.038168,-0.291748,-0.560547,0.759033,0.00,0.00,0.00
855,-0.320611,0.328244,0.022901,-0.284668,-0.567139,0.757568,0.00,0.00,0.00
856,-0.549618,0.351145,0.190840,-0.288086,-0.565430,0.754639,0.00,0.00,0.00
857,-0.213740,0.473282,0.030534,-0.295898,-0.560303,0.753174,0.00,0.00,0.00
858,-0.267176,0.389313,0.198473,-0.284668,-0.562256,0.749512,0.00,0.00,0.00
859,-0.396947,0.389313,0.160305,-0.289062,-0.565674,0.761230,0.00,0.00,0.00
860,-0.389313,0.312977,0.145038,-0.287598,-0.567871,0.746582,0.00,0.00,0.00
861,-0.282443,0.366412,0.244275,-0.295410,-0.566162,0.759277,0.00,0.00,0.00
862,-0.412214,0.480916,0.267176,-0.293213,-0.562256,0.756104,0.00,0.00,0.00
863,-0.229008,0.496183,0.083969,-0.295166,-0.560791,0.750732,0.00,0.00,0.00
864,-0.458015,0.381679,0.053435,-0.291016,-0.564453,0.758789,0.00,0.00,0.00
865,-0.320611,0.312977,0.160305,-0.291260,-0.563965,0.752930,0.00,0.00,0.00
866,-0.221374,0.351145,0.053435,-0.295410,-0.562012,0.757812,0.00,0.00,0.00
867,-0.244275,0.267176,0.022901,-0.293701,-0.571533,0.753418,0.00,0.00,0.00
868,-0.290076,0.206107,-0.045802,-0.292725,-0.560059,0.747314,0.00,0.00,0.00
869,-0.282443,0.305344,0.083969,-0.289062,-0.565186,0.759521,0.00,0.00,0.00
870,-0.282443,0.122137,-0.007634,-0.293457,-0.564453,0.757080,0.00,0.00,0.00
871,-0.213740,0.229008,0.175573,-0.293457,-0.560791,0.753174,0.00,0.00,0.00
872,-0.236641,0.312977,0.198473,-0.288330,-0.561035,0.758789,0.00,0.00,0.00
873,-0.328244,0.213740,0.213740,-0.291016,-0.560303,0.755859,0.00,0.00,0.00
874,-0.427481,0.290076,0.198473,-0.284668,-0.568604,0.744629,0.00,0.00,0.00
875,-0.297710,0.190840,0.160305,-0.288330,-0.559570,0.748047,0.00,0.00,0.00
876,-0.297710,0.458015,0.167939,-0.296631,-0.559814,0.753662,0.00,0.00,0.00
877,-0.259542,0.450382,0.076336,-0.293701,-0.563232,0.755615,0.00,0.00,0.00
878,-0.320611,0.251908,0.175573,-0.293945,-0.563477,0.753174,0.00,0.00,0.00
879,-0.267176,0.374046,0.068702,-0.291748,-0.563477,0.754150,0.00,0.00,0.00
880,-0.152672,0.343511,0.244275,-0.290039,-0.568359,0.757080,0.00,0.00,0.00
881,-0.290076,0.396947,0.000000,-0.290283,-0.565430,0.760498,0.00,0.00,0.00
882,-0.152672,0.381679,0.045802,-0.289307,-0.562744,0.749756,0.00,0.00,0.00
883,-0.274809,0.328244,-0.030534,-0.289307,-0.562012,0.765381,0.00,0.00,0.00
884,-0.167939,0.343511,0.038168,-0.293945,-0.567139,0.755371,0.00,0.00,0.00
885,-0.389313,0.312977,-0.022901,-0.291748,-0.567139,0.752686,0.00,0.00,0.00
886,-0.129771,0.167939,-0.068702,-0.291504,-0.566650,0.751709,0.00,0.00,0.00
887,0.030534,0.290076,-0.053435,-0.291992,-0.563477,0.757812,0.00,0.00,0.00
888,-0.221374,0.061069,-0.045802,-0.296631,-0.568359,0.758789,0.00,0.00,0.00
889,-0.099237,0.022901,-0.076336,-0.290771,-0.566162,0.756836,0.00,0.00,0.00
890,-0.061069,0.099237,0.045802,-0.292480,-0.563232,0.763428,0.00,0.00,0.00
891,-0.183206,0.076336,0.076336,-0.292236,-0.572266,0.754395,0.00,0.00,0.00
892,-0.083969,0.068702,-0.061069,-0.301514,-0.566406,0.751221,0.00,0.00,0.00
893,-0.145038,0.091603,0.114504,-0.293213,-0.573242,0.745850,0.00,0.00,0.00
894,-0.106870,0.122137,-0.076336,-0.291016,-0.567139,0.751953,0.00,0.00,0.00
895,-0.045802,0.122137,-0.122137,-0.291260,-0.566406,0.755127,0.00,0.00,0.00
896,-0.053435,0.083969,-0.038168,-0.295654,-0.568848,0.739502,0.00,0.00,0.00
897,-0.167939,0.038168,-0.236641,-0.296631,-0.563721,0.751953,0.00,0.00,0.00
898,-0.007634,0.114504,-0.213740,-0.292480,-0.566406,0.741211,0.00,0.00,0.00
899,0.015267,0.061069,-0.152672,-0.296875,-0.565186,0.750977,0.00,0.00,0.00
900,0.007634,-0.076336,-0.206107,-0.292236,-0.565918,0.753174,0.00,0.00,0.00
901,0.030534,-0.137405,-0.160305,-0.294189,-0.566406,0.747803,0.00,0.00,0.00
902,0.091603,-0.061069,-0.122137,-0.297119,-0.564209,0.763428,0.00,0.00,0.00
903,0.106870,-0.229008,-0.106870,-0.292236,-0.564941,0.761475,0.00,0.00,0.00
904,-0.106870,-0.190840,-0.175573,-0.289307,-0.562988,0.752197,0.00,0.00,0.00
905,-0.053435,-0.175573,-0.175573,-0.299805,-0.568115,0.748291,0.00,0.00,0.00
906,-0.122137,-0.152672,-0.267176,-0.291260,-0.564209,0.752197,0.00,0.00,0.00
907,0.007634,-0.190840,-0.160305,-0.294189,-0.564697,0.752197,0.00,0.00,0.00
908,0.221374,-0.076336,-0.229008,-0.290527,-0.560303,0.756348,0.00,0.00,0.00
909,-0.022901,-0.061069,-0.290076,-0.290771,-0.561279,0.753174,0.00,0.00,0.00
910,0.183206,-0.083969,-0.267176,-0.292480,-0.566406,0.757568,0.00,0.00,0.00
911,0.030534,0.099237,-0.297710,-0.292969,-0.572754,0.754395,0.00,0.00,0.00
912,0.076336,-0.022901,-0.282443,-0.287842,-0.569092,0.756104,0.00,0.00,0.00
913,-0.007634,-0.091603,-0.114504,-0.294434,-0.570557,0.755615,0.00,0.00,0.00
914,-0.129771,-0.061069,-0.206107,-0.291992,-0.567627,0.756836,0.00,0.00,0.00
915,-0.045802,-0.030534,-0.229008,-0.296143,-0.565186,0.755859,0.00,0.00,0.00
916,0.030534,0.145038,-0.198473,-0.291260,-0.559082,0.758301,0.00,0.00,0.00
917,-0.038168,0.076336,-0.099237,-0.287598,-0.569092,0.748535,0.00,0.00,0.00
918,0.129771,0.061069,-0.259542,-0.292725,-0.569824,0.762451,0.00,0.00,0.00
919,0.061069,-0.045802,-0.076336,-0.300781,-0.557373,0.749023,0.00,0.00,0.00
920,0.045802,0.015267,-0.244275,-0.294922,-0.568115,0.745361,0.00,0.00,0.00
921,0.068702,-0.167939,-0.137405,-0.288818,-0.569092,0.750977,0.00,0.00,0.00
922,0.175573,-0.129771,-0.259542,-0.293457,-0.565186,0.755371,0.00,0.00,0.00
923,0.129771,-0.160305,-0.167939,-0.293945,-0.563721,0.759521,0.00,0.00,0.00
924,0.129771,-0.129771,-0.175573,-0.294434,-0.569824,0.763916,0.00,0.00,0.00
925,0.137405,-0.259542,-0.351145,-0.296631,-0.567139,0.757568,0.00,0.00,0.00
926,0.167939,-0.175573,-0.305344,-0.291504,-0.563232,0.754395,0.00,0.00,0.00
927,0.152672,-0.190840,-0.297710,-0.290527,-0.569092,0.748291,0.00,0.00,0.00
928,0.198473,-0.297710,-0.274809,-0.292969,-0.568848,0.766113,0.00,0.00,0.00
929,0.251908,-0.282443,-0.259542,-0.300293,-0.564209,0.762451,0.00,0.00,0.00
930,0.259542,-0.145038,-0.213740,-0.292725,-0.566406,0.751709,0.00,0.00,0.00
931,0.213740,-0.183206,-0.305344,-0.290527,-0.564453,0.747314,0.00,0.00,0.00
932,0.167939,-0.244275,-0.381679,-0.283447,-0.569336,0.749023,0.00,0.00,0.00
933,0.022901,-0.183206,-0.419847,-0.289307,-0.568359,0.750977,0.00,0.00,0.00
934,0.122137,-0.221374,-0.221374,-0.288818,-0.576172,0.754883,0.00,0.00,0.00
935,0.160305,-0.122137,-0.343511,-0.289795,-0.565430,0.764893,0.00,0.00,0.00
936,0.091603,0.015267,-0.106870,-0.293701,-0.563232,0.762207,0.00,0.00,0.00
937,0.106870,-0.152672,-0.244275,-0.287842,-0.565674,0.758545,0.00,0.00,0.00
938,-0.091603,-0.038168,-0.167939,-0.289795,-0.567139,0.759766,0.00,0.00,0.00
939,0.030534,-0.106870,-0.175573,-0.288574,-0.565918,0.744141,0.00,0.00,0.00
940,0.030534,0.083969,-0.351145,-0.290771,-0.571289,0.753662,0.00,0.00,0.00
941,0.068702,-0.122137,-0.022901,-0.290527,-0.566162,0.755859,0.00,0.00,0.00
942,-0.007634,-0.114504,-0.206107,-0.292725,-0.563965,0.753418,0.00,0.00,0.00
943,-0.068702,-0.038168,-0.343511,-0.288818,-0.566162,0.756836,0.00,0.00,0.00
944,0.007634,-0.091603,-0.175573,-0.289795,-0.568359,0.754639,0.00,0.00,0.00
945,-0.068702,0.045802,-0.122137,-0.289795,-0.571777,0.757324,0.00,0.00,0.00
946,0.061069,-0.007634,-0.122137,-0.287842,-0.566162,0.758789,0.00,0.00,0.00
947,-0.076336,0.038168,-0.267176,-0.293701,-0.565430,0.754883,0.00,0.00,0.00
948,0.053435,0.068702,-0.114504,-0.294678,-0.569092,0.754150,0.00,0.00,0.00
949,0.015267,0.145038,-0.129771,-0.298096,-0.564453,0.760010,0.00,0.00,0.00
950,0.022901,-0.022901,-0.122137,-0.290283,-0.565430,0.752441,0.00,0.00,0.00
951,0.000000,0.106870,-0.122137,-0.291504,-0.566650,0.754639,0.00,0.00,0.00
952,0.106870,0.213740,-0.152672,-0.294189,-0.568115,0.764404,0.00,0.00,0.00
953,-0.106870,0.167939,-0.114504,-0.288818,-0.565918,0.752930,0.00,0.00,0.00
954,-0.038168,0.007634,-0.022901,-0.298828,-0.565430,0.761230,0.00,0.00,0.00
955,-0.106870,0.007634,-0.045802,-0.293213,-0.571533,0.752686,0.00,0.00,0.00
956,-0.061069,0.030534,-0.053435,-0.293701,-0.565918,0.754150,0.00,0.00,0.00
957,-0.091603,0.198473,-0.022901,-0.288086,-0.564453,0.750732,0.00,0.00,0.00
958,-0.076336,0.076336,-0.091603,-0.300293,-0.563965,0.756592,0.00,0.00,0.00
959,0.022901,-0.061069,-0.076336,-0.291260,-0.565674,0.757324,0.00,0.00,0.00
960,-0.167939,0.038168,-0.038168,-0.285889,-0.572754,0.750732,0.00,0.00,0.00
961,0.091603,0.007634,-0.091603,-0.299072,-0.563721,0.755615,0.00,0.00,0.00
962,-0.045802,0.213740,-0.022901,-0.295898,-0.565674,0.751221,0.00,0.00,0.00
963,-0.030534,0.160305,0.129771,-0.293457,-0.565918,0.749268,0.00,0.00,0.00
964,0.030534,0.152672,0.022901,-0.290771,-0.566650,0.754639,0.00,0.00,0.00
965,-0.137405,0.129771,0.076336,-0.294434,-0.563721,0.760254,0.00,0.00,0.00
966,-0.076336,0.038168,-0.160305,-0.290771,-0.567871,0.753418,0.00,0.00,0.00
967,-0.083969,0.145038,0.068702,-0.288574,-0.563477,0.764893,0.00,0.00,0.00
968,-0.061069,0.129771,-0.083969,-0.287109,-0.566406,0.758789,0.00,0.00,0.00
969,0.076336,0.045802,-0.068702,-0.297852,-0.568848,0.758301,0.00,0.00,0.00
970,0.000000,0.045802,0.022901,-0.291748,-0.567139,0.760010,0.00,0.00,0.00
971,-0.045802,0.068702,-0.015267,-0.295410,-0.568359,0.755615,0.00,0.00,0.00
972,-0.022901,-0.007634,-0.137405,-0.293945,-0.564941,0.756836,0.00,0.00,0.00
973,-0.038168,-0.022901,-0.083969,-0.295898,-0.564209,0.754395,0.00,0.00,0.00
974,-0.076336,0.000000,-0.129771,-0.291260,-0.567871,0.754395,0.00,0.00,0.00
975,-0.022901,-0.007634,-0.045802,-0.285645,-0.565674,0.760254,0.00,0.00,0.00
976,-0.061069,-0.045802,-0.076336,-0.294922,-0.571045,0.758301,0.00,0.00,0.00
977,-0.076336,-0.061069,-0.152672,-0.296143,-0.561035,0.753662,0.00,0.00,0.00
978,-0.106870,-0.221374,-0.259542,-0.292725,-0.564453,0.752441,0.00,0.00,0.00
979,-0.083969,-0.167939,-0.145038,-0.291016,-0.564697,0.744873,0.00,0.00,0.00
980,0.030534,-0.267176,-0.137405,-0.297119,-0.571045,0.749512,0.00,0.00,0.00
981,0.007634,-0.259542,-0.106870,-0.286865,-0.562012,0.757812,0.00,0.00,0.00
982,0.137405,-0.190840,-0.145038,-0.294189,-0.562256,0.753418,0.00,0.00,0.00
983,-0.076336,0.076336,-0.305344,-0.295410,-0.570312,0.750488,0.00,0.00,0.00
984,0.022901,-0.076336,-0.259542,-0.290039,-0.570068,0.757080,0.00,0.00,0.00
985,0.068702,-0.007634,-0.167939,-0.292480,-0.560059,0.751709,0.00,0.00,0.00
986,0.099237,0.076336,-0.053435,-0.287109,-0.564941,0.754639,0.00,0.00,0.00
987,0.122137,-0.167939,-0.137405,-0.289551,-0.565186,0.755127,0.00,0.00,0.00
988,0.068702,-0.015267,-0.053435,-0.295166,-0.560303,0.758057,0.00,0.00,0.00
989,0.015267,-0.091603,-0.305344,-0.289795,-0.567627,0.757324,0.00,0.00,0.00
990,0.083969,-0.137405,-0.160305,-0.295410,-0.568604,0.749756,0.00,0.00,0.00
991,0.213740,-0.137405,-0.122137,-0.292969,-0.567139,0.757568,0.00,0.00,0.00
992,0.076336,-0.160305,-0.083969,-0.297852,-0.569092,0.749756,0.00,0.00,0.00
993,0.068702,0.030534,-0.083969,-0.285156,-0.566895,0.754639,0.00,0.00,0.00
994,0.137405,0.030534,-0.083969,-0.287598,-0.565918,0.756836,0.00,0.00,0.00
995,0.076336,0.175573,-0.190840,-0.287109,-0.563721,0.761475,0.00,0.00,0.00
996,0.045802,0.244275,-0.229008,-0.290039,-0.566650,0.757812,0.00,0.00,0.00
997,0.068702,0.106870,-0.099237,-0.292725,-0.565186,0.750000,0.00,0.00,0.00
998,-0.091603,0.099237,-0.068702,-0.288574,-0.563721,0.759033,0.00,0.00,0.00
999,-0.198473,0.045802,-0.175573,-0.291260,-0.564697,0.751953,0.00,0.00,0.00
1000,0.038168,0.167939,-0.068702,-0.289551,-0.564941,0.757568,0.00,0.00,0.00
1001,0.091603,0.038168,-0.106870,-0.296631,-0.565430,0.763184,0.00,0.00,0.00
1002,-0.083969,0.030534,-0.038168,-0.289795,-0.566650,0.757080,0.00,0.00,0.00
1003,0.045802,-0.038168,0.022901,-0.291016,-0.562744,0.750000,0.00,0.00,0.00
1004,-0.099237,0.106870,-0.091603,-0.289307,-0.563965,0.754395,0.00,0.00,0.00
1005,-0.099237,0.045802,-0.175573,-0.289307,-0.563965,0.747803,0.00,0.00,0.00
1006,-0.022901,0.145038,-0.259542,-0.291016,-0.561035,0.759766,0.00,0.00,0.00
1007,-0.022901,-0.038168,-0.068702,-0.293945,-0.567383,0.757568,0.00,0.00,0.00
1008,0.083969,-0.106870,-0.167939,-0.293213,-0.564697,0.752441,0.00,0.00,0.00
1009,-0.022901,0.091603,-0.320611,-0.284668,-0.563477,0.745850,0.00,0.00,0.00
1010,-0.183206,0.038168,-0.183206,-0.290771,-0.565430,0.760498,0.00,0.00,0.00
1011,-0.099237,0.137405,-0.221374,-0.291992,-0.565430,0.753662,0.00,0.00,0.00
1012,0.015267,0.000000,-0.190840,-0.295410,-0.566162,0.745605,0.00,0.00,0.00
1013,-0.053435,0.015267,-0.244275,-0.290039,-0.566895,0.752686,0.00,0.00,0.00
1014,0.068702,0.114504,-0.114504,-0.293945,-0.566650,0.749268,0.00,0.00,0.00
1015,-0.053435,0.053435,-0.213740,-0.292480,-0.567627,0.750732,0.00,0.00,0.00
1016,-0.091603,-0.083969,-0.297710,-0.294922,-0.571289,0.759521,0.00,0.00,0.00
1017,0.007634,-0.022901,-0.190840,-0.289551,-0.562500,0.757080,0.00,0.00,0.00
1018,0.160305,0.076336,-0.167939,-0.291016,-0.565186,0.750488,0.00,0.00,0.00
1019,0.122137,0.221374,-0.076336,-0.292480,-0.564941,0.757568,0.00,0.00,0.00
1020,0.000000,0.160305,-0.129771,-0.290283,-0.565186,0.755127,0.00,0.00,0.00
1021,0.007634,-0.076336,-0.175573,-0.286377,-0.567139,0.757080,0.00,0.00,0.00
1022,0.053435,0.030534,-0.320611,-0.293457,-0.565918,0.753662,0.00,0.00,0.00
1023,0.083969,-0.152672,-0.213740,-0.291992,-0.566650,0.761475,0.00,0.00,0.00
1024,-0.030534,-0.129771,-0.190840,-0.291992,-0.563965,0.759277,0.00,0.00,0.00
1025,0.106870,0.061069,-0.206107,-0.295166,-0.564941,0.763672,0.00,0.00,0.00
1026,0.129771,-0.114504,-0.351145,-0.289551,-0.560547,0.754883,0.00,0.00,0.00
1027,-0.045802,-0.022901,-0.282443,-0.293945,-0.568115,0.761230,0.00,0.00,0.00
1028,0.076336,0.061069,-0.045802,-0.291992,-0.563721,0.753906,0.00,0.00,0.00
1029,-0.083969,0.091603,-0.152672,-0.295410,-0.564697,0.748291,0.00,0.00,0.00
1030,-0.091603,0.007634,-0.145038,-0.291748,-0.566406,0.755127,0.00,0.00,0.00
1031,0.114504,-0.068702,-0.091603,-0.292480,-0.566406,0.755615,0.00,0.00,0.00
1032,-0.061069,-0.007634,-0.244275,-0.293457,-0.562988,0.757324,0.00,0.00,0.00
1033,0.068702,0.183206,-0.175573,-0.293213,-0.562256,0.758057,0.00,0.00,0.00
1034,0.000000,0.091603,-0.251908,-0.300049,-0.560059,0.758789,0.00,0.00,0.00
1035,0.038168,-0.030534,-0.145038,-0.290039,-0.569580,0.753662,0.00,0.00,0.00
1036,0.083969,0.022901,-0.290076,-0.300537,-0.560303,0.756348,0.00,0.00,0.00
1037,-0.061069,-0.114504,-0.198473,-0.293945,-0.562744,0.752197,0.00,0.00,0.00
1038,0.053435,-0.290076,-0.114504,-0.293945,-0.569336,0.749023,0.00,0.00,0.00
1039,0.175573,-0.106870,-0.167939,-0.289062,-0.573486,0.751465,0.00,0.00,0.00
1040,0.175573,-0.152672,-0.259542,-0.291016,-0.563721,0.761230,0.00,0.00,0.00
1041,0.152672,-0.076336,-0.106870,-0.295410,-0.564209,0.755371,0.00,0.00,0.00
1042,-0.022901,0.129771,-0.129771,-0.289551,-0.566406,0.753662,0.00,0.00,0.00
1043,0.045802,0.053435,-0.099237,-0.297119,-0.562256,0.750000,0.00,0.00,0.00
1044,0.076336,0.160305,-0.259542,-0.294678,-0.569336,0.752686,0.00,0.00,0.00
1045,-0.061069,0.190840,-0.229008,-0.289551,-0.562744,0.745117,0.00,0.00,0.00
1046,0.068702,0.137405,-0.122137,-0.287842,-0.565186,0.747070,0.00,0.00,0.00
1047,0.053435,-0.022901,-0.167939,-0.300781,-0.562500,0.756836,0.00,0.00,0.00
1048,0.145038,-0.007634,-0.213740,-0.295410,-0.562744,0.752686,0.00,0.00,0.00
1049,0.244275,-0.061069,-0.335878,-0.298828,-0.567871,0.750244,0.00,0.00,0.00
1050,0.122137,-0.175573,-0.251908,-0.290771,-0.569092,0.757324,0.00,0.00,0.00
1051,0.122137,-0.160305,-0.213740,-0.290283,-0.570068,0.763428,0.00,0.00,0.00
1052,0.022901,-0.137405,-0.328244,-0.291992,-0.567871,0.760742,0.00,0.00,0.00
1053,0.122137,-0.083969,-0.183206,-0.288330,-0.566895,0.744873,0.00,0.00,0.00
1054,-0.038168,-0.183206,-0.190840,-0.290527,-0.557617,0.757324,0.00,0.00,0.00
1055,-0.022901,-0.038168,-0.099237,-0.284668,-0.567383,0.760498,0.00,0.00,0.00
1056,0.152672,-0.106870,-0.305344,-0.293213,-0.566895,0.756592,0.00,0.00,0.00
1057,0.022901,-0.137405,-0.236641,-0.290283,-0.559814,0.751709,0.00,0.00,0.00
1058,0.000000,-0.122137,-0.106870,-0.296387,-0.565430,0.761963,0.00,0.00,0.00
1059,0.007634,0.015267,-0.137405,-0.291748,-0.566162,0.751953,0.00,0.00,0.00
1060,0.068702,0.007634,-0.091603,-0.286377,-0.563721,0.750000,0.00,0.00,0.00
1061,-0.015267,0.122137,-0.106870,-0.291992,-0.564697,0.752686,0.00,0.00,0.00
1062,-0.038168,0.076336,-0.106870,-0.296631,-0.567871,0.759521,0.00,0.00,0.00
1063,-0.106870,0.198473,-0.022901,-0.296631,-0.558350,0.757324,0.00,0.00,0.00
1064,-0.076336,0.068702,-0.015267,-0.289062,-0.564941,0.749756,0.00,0.00,0.00
1065,-0.061069,0.129771,-0.122137,-0.294189,-0.561768,0.757568,0.00,0.00,0.00
1066,-0.083969,0.038168,-0.114504,-0.294678,-0.562988,0.758545,0.00,0.00,0.00
1067,-0.076336,-0.030534,-0.175573,-0.300049,-0.568359,0.749023,0.00,0.00,0.00
1068,-0.160305,-0.015267,-0.099237,-0.290283,-0.567139,0.748291,0.00,0.00,0.00
1069,-0.175573,0.030534,-0.015267,-0.290771,-0.564941,0.759521,0.00,0.00,0.00
1070,-0.114504,0.190840,-0.244275,-0.290283,-0.569824,0.752441,0.00,0.00,0.00
1071,0.091603,0.038168,-0.099237,-0.295166,-0.572266,0.750244,0.00,0.00,0.00
1072,0.122137,0.068702,-0.236641,-0.284912,-0.566650,0.756836,0.00,0.00,0.00
1073,0.091603,0.206107,-0.244275,-0.288086,-0.563721,0.756348,0.00,0.00,0.00
1074,0.145038,0.114504,-0.099237,-0.287842,-0.565918,0.752686,0.00,0.00,0.00
1075,0.007634,0.160305,-0.129771,-0.293701,-0.565918,0.750977,0.00,0.00,0.00
1076,-0.106870,0.152672,-0.274809,-0.281982,-0.569092,0.756592,0.00,0.00,0.00
1077,0.061069,0.053435,-0.022901,-0.298828,-0.562744,0.759521,0.00,0.00,0.00
1078,0.076336,0.091603,-0.076336,-0.293701,-0.566650,0.753662,0.00,0.00,0.00
1079,0.061069,0.229008,-0.099237,-0.292480,-0.563721,0.748291,0.00,0.00,0.00
1080,-0.038168,0.244275,-0.038168,-0.287598,-0.570068,0.749268,0.00,0.00,0.00
1081,-0.030534,0.267176,-0.015267,-0.297607,-0.565674,0.765625,0.00,0.00,0.00
1082,-0.137405,0.229008,0.000000,-0.287598,-0.563721,0.761963,0.00,0.00,0.00
1083,0.022901,0.122137,-0.030534,-0.294189,-0.563721,0.752197,0.00,0.00,0.00
1084,-0.007634,0.167939,0.000000,-0.295410,-0.563721,0.753906,0.00,0.00,0.00
1085,-0.061069,0.167939,-0.061069,-0.299561,-0.568359,0.756348,0.00,0.00,0.00
1086,0.015267,0.175573,-0.351145,-0.297852,-0.567627,0.752686,0.00,0.00,0.00
1087,0.236641,0.282443,-0.213740,-0.290527,-0.565430,0.757080,0.00,0.00,0.00
1088,-0.106870,0.213740,-0.076336,-0.290283,-0.566406,0.758789,0.00,0.00,0.00
1089,-0.083969,0.190840,-0.137405,-0.294922,-0.560791,0.753174,0.00,0.00,0.00
1090,0.022901,-0.022901,-0.213740,-0.292480,-0.562012,0.753662,0.00,0.00,0.00
1091,0.000000,0.152672,-0.206107,-0.294922,-0.566406,0.759277,0.00,0.00,0.00
1092,0.068702,0.251908,-0.045802,-0.288086,-0.570068,0.752686,0.00,0.00,0.00
1093,0.045802,0.366412,-0.083969,-0.289062,-0.568848,0.757080,0.00,0.00,0.00
1094,0.099237,0.381679,-0.045802,-0.286133,-0.566162,0.745850,0.00,0.00,0.00
1095,0.015267,0.244275,-0.015267,-0.287109,-0.567383,0.746338,0.00,0.00,0.00
1096,-0.091603,0.152672,-0.152672,-0.293213,-0.565918,0.759033,0.00,0.00,0.00
1097,0.022901,0.274809,-0.061069,-0.287109,-0.567139,0.750488,0.00,0.00,0.00
1098,-0.007634,0.076336,0.007634,-0.287598,-0.571289,0.756592,0.00,0.00,0.00
1099,-0.145038,0.076336,0.030534,-0.297363,-0.566162,0.757812,0.00,0.00,0.00
1100,0.015267,0.007634,-0.183206,-0.294189,-0.572266,0.755859,0.00,0.00,0.00
1101,0.038168,0.000000,-0.099237,-0.289551,-0.565674,0.754639,0.00,0.00,0.00
1102,0.007634,0.007634,-0.137405,-0.289551,-0.563965,0.756592,0.00,0.00,0.00
1103,0.099237,0.045802,-0.114504,-0.295410,-0.564453,0.747070,0.00,0.00,0.00
1104,0.000000,-0.038168,-0.213740,-0.295410,-0.561279,0.757080,0.00,0.00,0.00
1105,-0.137405,0.030534,-0.167939,-0.283691,-0.563232,0.757324,0.00,0.00,0.00
1106,0.030534,-0.030534,-0.129771,-0.294189,-0.569824,0.760742,0.00,0.00,0.00
1107,0.145038,-0.053435,-0.290076,-0.289062,-0.570068,0.756592,0.00,0.00,0.00
1108,0.007634,-0.259542,-0.137405,-0.293457,-0.563477,0.758057,0.00,0.00,0.00
1109,0.091603,-0.045802,-0.290076,-0.290283,-0.571045,0.757812,0.00,0.00,0.00
1110,0.068702,-0.114504,-0.206107,-0.291504,-0.564697,0.746826,0.00,0.00,0.00
1111,0.068702,-0.221374,-0.061069,-0.291992,-0.565918,0.755859,0.00,0.00,0.00
1112,0.114504,-0.022901,-0.236641,-0.304932,-0.567871,0.744385,0.00,0.00,0.00
1113,0.053435,0.015267,-0.328244,-0.296875,-0.561279,0.761230,0.00,0.00,0.00
1114,0.022901,0.007634,-0.038168,-0.287598,-0.567139,0.752441,0.00,0.00,0.00
1115,0.053435,0.091603,-0.106870,-0.287842,-0.562744,0.747314,0.00,0.00,0.00
1116,-0.068702,0.030534,-0.267176,-0.291992,-0.560791,0.758301,0.00,0.00,0.00
1117,-0.030534,0.106870,-0.213740,-0.291504,-0.569824,0.748779,0.00,0.00,0.00
1118,-0.053435,-0.106870,0.045802,-0.289795,-0.566406,0.752930,0.00,0.00,0.00
1119,-0.183206,0.091603,-0.213740,-0.291504,-0.567139,0.758301,0.00,0.00,0.00
1120,-0.007634,-0.076336,-0.122137,-0.296143,-0.566406,0.749268,0.00,0.00,0.00
1121,-0.083969,0.068702,-0.076336,-0.290771,-0.563965,0.757568,0.00,0.00,0.00
1122,0.007634,-0.015267,-0.145038,-0.287354,-0.560791,0.751221,0.00,0.00,0.00
1123,-0.106870,-0.068702,-0.030534,-0.289795,-0.563477,0.758545,0.00,0.00,0.00
1124,0.038168,-0.099237,-0.083969,-0.291748,-0.567383,0.764893,0.00,0.00,0.00
1125,0.137405,-0.122137,-0.206107,-0.295410,-0.563965,0.747559,0.00,0.00,0.00
1126,0.038168,-0.106870,-0.274809,-0.293213,-0.564697,0.760742,0.00,0.00,0.00
1127,0.061069,-0.099237,-0.404580,-0.288574,-0.564209,0.743408,0.00,0.00,0.00
1128,0.122137,-0.015267,-0.175573,-0.297363,-0.563232,0.756104,0.00,0.00,0.00
1129,0.045802,-0.122137,-0.083969,-0.294922,-0.567383,0.757080,0.00,0.00,0.00
1130,0.083969,-0.198473,-0.229008,-0.288818,-0.560791,0.753418,0.00,0.00,0.00
1131,0.000000,-0.038168,-0.145038,-0.291992,-0.569824,0.758301,0.00,0.00,0.00
1132,0.053435,-0.167939,-0.389313,-0.284424,-0.570068,0.759521,0.00,0.00,0.00
1133,0.114504,-0.183206,-0.213740,-0.285156,-0.567871,0.759766,0.00,0.00,0.00
1134,0.007634,-0.137405,-0.213740,-0.285400,-0.567383,0.751953,0.00,0.00,0.00
1135,-0.099237,-0.122137,-0.152672,-0.289307,-0.561768,0.764404,0.00,0.00,0.00
1136,0.030534,-0.114504,-0.213740,-0.285889,-0.562988,0.750000,0.00,0.00,0.00
1137,-0.106870,-0.076336,-0.045802,-0.289307,-0.563477,0.769531,0.00,0.00,0.00
1138,-0.206107,0.045802,-0.114504,-0.292480,-0.565918,0.760498,0.00,0.00,0.00
1139,-0.106870,-0.045802,-0.183206,-0.296631,-0.563721,0.757324,0.00,0.00,0.00
1140,-0.045802,0.000000,-0.160305,-0.291992,-0.568604,0.764404,0.00,0.00,0.00
1141,-0.022901,-0.114504,-0.137405,-0.291504,-0.567139,0.744141,0.00,0.00,0.00
1142,0.045802,-0.030534,-0.175573,-0.294189,-0.560059,0.744873,0.00,0.00,0.00
1143,-0.068702,-0.320611,-0.282443,-0.294922,-0.561035,0.763916,0.00,0.00,0.00
1144,-0.038168,-0.221374,-0.091603,-0.285889,-0.570312,0.754395,0.00,0.00,0.00
1145,-0.061069,-0.221374,-0.259542,-0.297119,-0.564697,0.750000,0.00,0.00,0.00
1146,-0.030534,-0.175573,-0.236641,-0.285400,-0.560059,0.757080,0.00,0.00,0.00
1147,0.061069,-0.045802,-0.213740,-0.292480,-0.564209,0.763672,0.00,0.00,0.00
1148,0.198473,-0.152672,-0.244275,-0.284180,-0.567871,0.754395,0.00,0.00,0.00
1149,-0.007634,-0.328244,-0.274809,-0.296143,-0.568115,0.752686,0.00,0.00,0.00
1150,0.175573,-0.106870,-0.312977,-0.293213,-0.565430,0.758301,0.00,0.00,0.00
1151,0.053435,-0.137405,-0.122137,-0.299805,-0.571777,0.753418,0.00,0.00,0.00
1152,-0.099237,-0.091603,-0.183206,-0.293457,-0.563721,0.755127,0.00,0.00,0.00
1153,0.015267,-0.282443,-0.129771,-0.288818,-0.565430,0.754395,0.00,0.00,0.00
1154,-0.030534,0.015267,-0.022901,-0.290283,-0.567139,0.750977,0.00,0.00,0.00
1155,0.038168,-0.022901,-0.030534,-0.292969,-0.568359,0.762451,0.00,0.00,0.00
1156,-0.015267,0.122137,-0.328244,-0.296143,-0.568115,0.753906,0.00,0.00,0.00
1157,-0.137405,-0.076336,-0.122137,-0.293945,-0.566162,0.760742,0.00,0.00,0.00
1158,-0.198473,0.030534,-0.190840,-0.284180,-0.564941,0.760498,0.00,0.00,0.00
1159,-0.007634,0.015267,-0.068702,-0.291748,-0.565430,0.760986,0.00,0.00,0.00
1160,-0.129771,0.183206,-0.114504,-0.292480,-0.571289,0.751221,0.00,0.00,0.00
1161,-0.106870,-0.030534,-0.145038,-0.291748,-0.562744,0.750000,0.00,0.00,0.00
1162,-0.229008,0.129771,-0.045802,-0.292969,-0.569092,0.760254,0.00,0.00,0.00
1163,-0.099237,0.007634,-0.114504,-0.294922,-0.567627,0.754639,0.00,0.00,0.00
1164,-0.213740,0.000000,-0.045802,-0.290283,-0.566162,0.747070,0.00,0.00,0.00
1165,-0.167939,0.022901,-0.175573,-0.292725,-0.565186,0.753418,0.00,0.00,0.00
1166,-0.145038,-0.022901,-0.076336,-0.288086,-0.563232,0.754883,0.00,0.00,0.00
1167,-0.083969,-0.038168,-0.160305,-0.290771,-0.564941,0.751953,0.00,0.00,0.00
1168,-0.129771,-0.083969,-0.167939,-0.293701,-0.569092,0.756836,0.00,0.00,0.00
1169,0.000000,-0.106870,-0.129771,-0.293945,-0.566650,0.747803,0.00,0.00,0.00
1170,-0.190840,-0.160305,-0.068702,-0.294922,-0.560059,0.754150,0.00,0.00,0.00
1171,-0.099237,-0.213740,-0.152672,-0.294189,-0.568848,0.755615,0.00,0.00,0.00
1172,-0.007634,-0.106870,-0.198473,-0.293457,-0.565430,0.768799,0.00,0.00,0.00
1173,-0.114504,-0.167939,-0.068702,-0.289795,-0.565918,0.756104,0.00,0.00,0.00
1174,-0.068702,-0.213740,-0.091603,-0.293701,-0.571289,0.765625,0.00,0.00,0.00
1175,-0.129771,0.038168,0.007634,-0.292480,-0.569092,0.752686,0.00,0.00,0.00
1176,0.045802,-0.106870,-0.152672,-0.292236,-0.563477,0.760010,0.00,0.00,0.00
1177,0.007634,-0.083969,-0.236641,-0.289062,-0.566650,0.751709,0.00,0.00,0.00
1178,0.114504,-0.099237,-0.053435,-0.289062,-0.564697,0.746826,0.00,0.00,0.00
1179,0.053435,-0.007634,-0.068702,-0.280762,-0.560791,0.766846,0.00,0.00,0.00
1180,0.038168,-0.274809,-0.175573,-0.294189,-0.565918,0.752197,0.00,0.00,0.00
1181,-0.114504,-0.099237,-0.160305,-0.287842,-0.565186,0.749756,0.00,0.00,0.00
1182,-0.137405,-0.099237,-0.022901,-0.286377,-0.564941,0.757568,0.00,0.00,0.00
1183,-0.160305,-0.129771,0.000000,-0.295410,-0.567383,0.744385,0.00,0.00,0.00
1184,-0.137405,-0.282443,-0.160305,-0.289062,-0.569580,0.753174,0.00,0.00,0.00
1185,0.160305,-0.244275,-0.175573,-0.287842,-0.565674,0.752930,0.00,0.00,0.00
1186,0.045802,-0.076336,-0.038168,-0.293701,-0.565186,0.745117,0.00,0.00,0.00
1187,-0.022901,-0.183206,-0.030534,-0.292236,-0.566406,0.758545,0.00,0.00,0.00
1188,-0.015267,-0.068702,-0.106870,-0.292725,-0.562256,0.740723,0.00,0.00,0.00
1189,-0.038168,-0.190840,-0.129771,-0.287109,-0.570557,0.756836,0.00,0.00,0.00
1190,-0.229008,-0.145038,-0.068702,-0.291504,-0.564941,0.755127,0.00,0.00,0.00
1191,-0.068702,-0.083969,-0.030534,-0.296631,-0.570557,0.756104,0.00,0.00,0.00
1192,-0.122137,-0.007634,-0.053435,-0.289062,-0.562744,0.758301,0.00,0.00,0.00
1193,-0.152672,-0.038168,0.106870,-0.292725,-0.563965,0.750732,0.00,0.00,0.00
1194,-0.236641,-0.007634,-0.083969,-0.295166,-0.565186,0.751221,0.00,0.00,0.00
1195,-0.236641,0.129771,0.038168,-0.292236,-0.565186,0.755615,0.00,0.00,0.00
1196,-0.244275,0.038168,-0.106870,-0.295166,-0.566406,0.760010,0.00,0.00,0.00
1197,-0.236641,0.022901,-0.030534,-0.294189,-0.568359,0.762451,0.00,0.00,0.00
1198,-0.122137,0.099237,-0.114504,-0.288574,-0.566406,0.749268,0.00,0.00,0.00
1199,-0.152672,0.045802,-0.045802,-0.295166,-0.563477,0.754150,0.00,0.00,0.00
1200,-0.129771,0.183206,0.099237,-0.292480,-0.568359,0.752197,0.00,0.00,0.00
1201,-0.190840,0.129771,0.030534,-0.287109,-0.567383,0.759521,0.00,0.00,0.00
1202,0.022901,0.106870,0.022901,-0.292480,-0.567139,0.753418,0.00,0.00,0.00
1203,-0.152672,0.091603,0.091603,-0.295654,-0.571533,0.747559,0.00,0.00,0.00
1204,-0.145038,0.229008,-0.022901,-0.289307,-0.563965,0.755859,0.00,0.00,0.00
1205,-0.083969,0.175573,0.129771,-0.289795,-0.565674,0.754639,0.00,0.00,0.00
1206,-0.015267,0.259542,-0.244275,-0.288574,-0.564941,0.750000,0.00,0.00,0.00
1207,-0.206107,0.076336,-0.053435,-0.291748,-0.562744,0.760986,0.00,0.00,0.00
1208,0.068702,0.206107,0.007634,-0.291260,-0.566406,0.752930,0.00,0.00,0.00
1209,-0.076336,0.099237,-0.015267,-0.292969,-0.562988,0.752197,0.00,0.00,0.00
1210,-0.137405,0.083969,-0.274809,-0.291504,-0.563721,0.761719,0.00,0.00,0.00
1211,-0.122137,0.198473,-0.083969,-0.291260,-0.563232,0.753662,0.00,0.00,0.00
1212,-0.236641,0.160305,0.007634,-0.289795,-0.564941,0.752686,0.00,0.00,0.00
1213,0.061069,-0.061069,-0.030534,-0.293945,-0.561768,0.755127,0.00,0.00,0.00
1214,0.091603,0.007634,-0.106870,-0.302490,-0.570068,0.753906,0.00,0.00,0.00
1215,-0.099237,0.122137,0.007634,-0.286377,-0.565186,0.753418,0.00,0.00,0.00
1216,-0.053435,0.083969,-0.160305,-0.285889,-0.562988,0.757324,0.00,0.00,0.00
1217,-0.076336,-0.038168,-0.122137,-0.299805,-0.564209,0.758057,0.00,0.00,0.00
1218,-0.099237,-0.190840,-0.122137,-0.292969,-0.566162,0.761719,0.00,0.00,0.00
1219,-0.091603,-0.122137,-0.145038,-0.289307,-0.562988,0.745605,0.00,0.00,0.00
1220,-0.099237,0.061069,-0.274809,-0.290283,-0.566650,0.762695,0.00,0.00,0.00
1221,0.076336,-0.053435,-0.122137,-0.287842,-0.570312,0.753418,0.00,0.00,0.00
1222,0.068702,-0.145038,-0.190840,-0.293457,-0.568115,0.751709,0.00,0.00,0.00
1223,0.099237,-0.076336,-0.160305,-0.291016,-0.566650,0.767334,0.00,0.00,0.00
1224,-0.045802,0.007634,-0.229008,-0.289307,-0.566650,0.751953,0.00,0.00,0.00
1225,0.000000,0.038168,-0.045802,-0.292236,-0.566895,0.753662,0.00,0.00,0.00
1226,0.015267,0.022901,-0.167939,-0.287598,-0.567627,0.759521,0.00,0.00,0.00
1227,-0.160305,-0.068702,-0.106870,-0.297363,-0.568604,0.762451,0.00,0.00,0.00
1228,-0.053435,-0.129771,-0.259542,-0.291016,-0.566895,0.755859,0.00,0.00,0.00
1229,-0.022901,-0.053435,-0.335878,-0.291748,-0.571289,0.758545,0.00,0.00,0.00
1230,0.015267,-0.190840,-0.229008,-0.291992,-0.561523,0.753418,0.00,0.00,0.00
1231,-0.030534,-0.229008,-0.206107,-0.297852,-0.567139,0.755371,0.00,0.00,0.00
1232,0.015267,-0.160305,-0.396947,-0.293213,-0.562500,0.754883,0.00,0.00,0.00
1233,0.045802,-0.229008,-0.259542,-0.291260,-0.569580,0.748535,0.00,0.00,0.00
1234,0.038168,-0.297710,-0.152672,-0.294678,-0.563232,0.751953,0.00,0.00,0.00
1235,-0.038168,-0.167939,-0.206107,-0.289062,-0.569092,0.753418,0.00,0.00,0.00
1236,0.038168,-0.198473,-0.145038,-0.295654,-0.573975,0.745361,0.00,0.00,0.00
1237,0.022901,-0.259542,-0.114504,-0.293945,-0.570312,0.752441,0.00,0.00,0.00
1238,0.007634,-0.183206,-0.259542,-0.296387,-0.568359,0.757568,0.00,0.00,0.00
1239,-0.106870,-0.076336,-0.206107,-0.297607,-0.567871,0.751709,0.00,0.00,0.00
1240,0.030534,-0.145038,-0.206107,-0.289307,-0.563232,0.746582,0.00,0.00,0.00
1241,0.000000,-0.145038,-0.152672,-0.287842,-0.570312,0.757080,0.00,0.00,0.00
1242,-0.053435,-0.122137,-0.198473,-0.293945,-0.567627,0.754639,0.00,0.00,0.00
1243,-0.022901,-0.076336,-0.358779,-0.293945,-0.565918,0.754639,0.00,0.00,0.00
1244,-0.038168,-0.091603,-0.251908,-0.293457,-0.566162,0.748291,0.00,0.00,0.00
1245,-0.083969,0.038168,-0.099237,-0.286133,-0.561279,0.758789,0.00,0.00,0.00
1246,-0.160305,-0.007634,-0.053435,-0.295410,-0.564697,0.756104,0.00,0.00,0.00
1247,-0.160305,-0.114504,0.000000,-0.289307,-0.569580,0.752930,0.00,0.00,0.00
1248,0.145038,0.007634,-0.053435,-0.287354,-0.563721,0.749023,0.00,0.00,0.00
1249,-0.083969,0.030534,-0.160305,-0.291504,-0.566162,0.748779,0.00,0.00,0.00
1250,0.015267,-0.045802,-0.129771,-0.291016,-0.563721,0.743652,0.00,0.00,0.00
1251,-0.145038,0.007634,-0.106870,-0.291260,-0.558350,0.757812,0.00,0.00,0.00
1252,-0.206107,0.236641,-0.030534,-0.295166,-0.568115,0.745117,0.00,0.00,0.00
1253,-0.045802,-0.007634,-0.251908,-0.297607,-0.565430,0.754639,0.00,0.00,0.00
1254,-0.053435,-0.198473,-0.206107,-0.289795,-0.564941,0.753174,0.00,0.00,0.00
1255,0.000000,-0.099237,-0.076336,-0.298340,-0.565918,0.760742,0.00,0.00,0.00
1256,0.015267,-0.091603,-0.160305,-0.292969,-0.563721,0.753906,0.00,0.00,0.00
1257,0.015267,-0.061069,-0.152672,-0.293213,-0.568848,0.754639,0.00,0.00,0.00
1258,-0.038168,0.000000,-0.190840,-0.295166,-0.568604,0.751709,0.00,0.00,0.00
1259,-0.167939,-0.053435,-0.183206,-0.292725,-0.565918,0.748779,0.00,0.00,0.00
1260,0.000000,-0.053435,-0.106870,-0.287598,-0.564453,0.753174,0.00,0.00,0.00
1261,-0.099237,0.038168,-0.122137,-0.286621,-0.561768,0.751221,0.00,0.00,0.00
1262,-0.122137,0.183206,-0.198473,-0.292480,-0.564453,0.762451,0.00,0.00,0.00
1263,0.076336,0.061069,-0.091603,-0.288574,-0.561523,0.756592,0.00,0.00,0.00
1264,0.061069,0.106870,-0.183206,-0.293457,-0.569336,0.746582,0.00,0.00,0.00
1265,0.015267,0.068702,-0.099237,-0.290039,-0.565918,0.753662,0.00,0.00,0.00
1266,0.015267,0.022901,-0.160305,-0.290527,-0.563232,0.748779,0.00,0.00,0.00
1267,0.061069,-0.099237,-0.160305,-0.293457,-0.563965,0.747559,0.00,0.00,0.00
1268,-0.076336,0.053435,-0.091603,-0.291748,-0.565430,0.757080,0.00,0.00,0.00
1269,-0.045802,0.000000,-0.068702,-0.294922,-0.571289,0.761719,0.00,0.00,0.00
1270,-0.022901,0.022901,-0.167939,-0.286865,-0.568604,0.764160,0.00,0.00,0.00
1271,0.038168,-0.129771,-0.137405,-0.292969,-0.562988,0.758057,0.00,0.00,0.00
1272,-0.022901,-0.099237,-0.152672,-0.294922,-0.567383,0.763428,0.00,0.00,0.00
1273,0.053435,0.061069,-0.053435,-0.297119,-0.564941,0.754395,0.00,0.00,0.00
1274,0.061069,0.061069,-0.175573,-0.295654,-0.569092,0.758057,0.00,0.00,0.00
1275,0.045802,0.091603,-0.114504,-0.291992,-0.559326,0.749023,0.00,0.00,0.00
1276,-0.045802,0.160305,-0.122137,-0.295410,-0.567139,0.755371,0.00,0.00,0.00
1277,-0.175573,-0.106870,-0.122137,-0.293945,-0.568115,0.755371,0.00,0.00,0.00
1278,0.015267,-0.015267,-0.251908,-0.295166,-0.565430,0.745605,0.00,0.00,0.00
1279,-0.053435,0.061069,0.038168,-0.293213,-0.560059,0.755371,0.00,0.00,0.00
1280,0.007634,0.038168,-0.145038,-0.296387,-0.568604,0.757080,0.00,0.00,0.00
1281,0.083969,0.106870,-0.145038,-0.285400,-0.560303,0.744629,0.00,0.00,0.00
1282,-0.053435,0.167939,-0.038168,-0.292969,-0.563965,0.762939,0.00,0.00,0.00
1283,-0.015267,0.129771,-0.152672,-0.292480,-0.565918,0.752441,0.00,0.00,0.00
1284,-0.099237,0.045802,-0.137405,-0.290283,-0.574707,0.754639,0.00,0.00,0.00
1285,-0.137405,0.251908,0.007634,-0.291748,-0.566406,0.755371,0.00,0.00,0.00
1286,-0.061069,0.099237,-0.267176,-0.290771,-0.565430,0.754639,0.00,0.00,0.00
1287,-0.015267,-0.007634,-0.206107,-0.289307,-0.565674,0.747559,0.00,0.00,0.00
1288,-0.114504,0.038168,-0.129771,-0.292725,-0.570801,0.750732,0.00,0.00,0.00
1289,0.091603,0.053435,-0.236641,-0.287109,-0.566162,0.752441,0.00,0.00,0.00
1290,0.038168,-0.007634,-0.076336,-0.290527,-0.562256,0.747314,0.00,0.00,0.00
1291,0.061069,0.137405,-0.076336,-0.290039,-0.561768,0.754150,0.00,0.00,0.00
1292,0.030534,-0.022901,-0.198473,-0.291748,-0.562744,0.746582,0.00,0.00,0.00
1293,0.007634,-0.053435,-0.213740,-0.295654,-0.569092,0.752197,0.00,0.00,0.00
1294,-0.091603,-0.137405,-0.160305,-0.295410,-0.566406,0.740967,0.00,0.00,0.00
1295,-0.022901,-0.038168,-0.213740,-0.299072,-0.565186,0.749512,0.00,0.00,0.00
1296,-0.114504,-0.099237,-0.297710,-0.288330,-0.562500,0.755371,0.00,0.00,0.00
1297,-0.015267,-0.160305,-0.167939,-0.290039,-0.566895,0.755615,0.00,0.00,0.00
1298,0.091603,-0.175573,-0.114504,-0.294189,-0.561035,0.757812,0.00,0.00,0.00
1299,0.022901,-0.083969,-0.213740,-0.298340,-0.561035,0.757080,0.00,0.00,0.00
1300,0.045802,-0.129771,-0.274809,-0.297119,-0.567871,0.756348,0.00,0.00,0.00
1301,0.145038,-0.114504,-0.190840,-0.292725,-0.567139,0.742188,0.00,0.00,0.00
1302,0.068702,-0.068702,-0.213740,-0.293701,-0.565918,0.755615,0.00,0.00,0.00
1303,0.045802,-0.015267,-0.259542,-0.300293,-0.563721,0.756592,0.00,0.00,0.00
1304,0.137405,-0.145038,-0.282443,-0.296143,-0.562988,0.764404,0.00,0.00,0.00
1305,0.053435,-0.076336,0.007634,-0.291748,-0.563477,0.743896,0.00,0.00,0.00
1306,0.038168,-0.099237,-0.198473,-0.287109,-0.567627,0.757812,0.00,0.00,0.00
1307,0.022901,-0.038168,-0.068702,-0.291504,-0.568359,0.759033,0.00,0.00,0.00
1308,-0.053435,-0.099237,0.076336,-0.289062,-0.561768,0.750732,0.00,0.00,0.00
1309,0.114504,0.000000,-0.038168,-0.293457,-0.567383,0.757080,0.00,0.00,0.00
1310,-0.053435,0.061069,-0.038168,-0.294922,-0.567383,0.755859,0.00,0.00,0.00
1311,-0.061069,0.061069,-0.099237,-0.286621,-0.563232,0.751709,0.00,0.00,0.00
1312,-0.068702,-0.076336,-0.160305,-0.297363,-0.566895,0.750244,0.00,0.00,0.00
1313,0.061069,0.152672,-0.267176,-0.290283,-0.562256,0.747314,0.00,0.00,0.00
1314,-0.030534,0.007634,-0.175573,-0.296143,-0.568115,0.749756,0.00,0.00,0.00
1315,-0.022901,-0.053435,0.007634,-0.289062,-0.562988,0.751709,0.00,0.00,0.00
1316,0.015267,-0.022901,0.030534,-0.292969,-0.560791,0.758057,0.00,0.00,0.00
1317,0.061069,0.030534,-0.083969,-0.290039,-0.567139,0.742676,0.00,0.00,0.00
1318,0.137405,0.053435,-0.152672,-0.293213,-0.562988,0.760254,0.00,0.00,0.00
1319,-0.106870,0.083969,-0.099237,-0.289551,-0.562988,0.758057,0.00,0.00,0.00
1320,0.122137,-0.007634,0.000000,-0.293213,-0.564209,0.754150,0.00,0.00,0.00
1321,0.053435,-0.068702,-0.175573,-0.289795,-0.570068,0.757324,0.00,0.00,0.00
1322,-0.122137,0.152672,-0.244275,-0.288818,-0.563477,0.756348,0.00,0.00,0.00
1323,0.061069,-0.175573,-0.114504,-0.292725,-0.568359,0.750244,0.00,0.00,0.00
1324,0.007634,-0.083969,-0.091603,-0.292969,-0.568848,0.759766,0.00,0.00,0.00
1325,0.053435,0.007634,-0.106870,-0.291016,-0.566895,0.758301,0.00,0.00,0.00
1326,0.022901,-0.099237,-0.076336,-0.290283,-0.562988,0.749512,0.00,0.00,0.00
1327,0.000000,-0.045802,-0.229008,-0.290527,-0.562744,0.753662,0.00,0.00,0.00
1328,0.030534,-0.038168,-0.129771,-0.289795,-0.561035,0.758301,0.00,0.00,0.00
1329,-0.083969,0.022901,-0.183206,-0.288330,-0.560303,0.754395,0.00,0.00,0.00
1330,0.030534,0.244275,-0.114504,-0.292725,-0.563477,0.760498,0.00,0.00,0.00
1331,-0.076336,-0.068702,0.022901,-0.293701,-0.565918,0.759521,0.00,0.00,0.00
1332,-0.106870,0.030534,-0.068702,-0.288330,-0.565186,0.756104,0.00,0.00,0.00
1333,0.061069,0.099237,0.061069,-0.293213,-0.562012,0.752686,0.00,0.00,0.00
1334,-0.007634,0.122137,-0.030534,-0.293701,-0.564453,0.747070,0.00,0.00,0.00
1335,0.076336,0.022901,-0.175573,-0.296143,-0.562012,0.748535,0.00,0.00,0.00
1336,-0.076336,0.145038,-0.152672,-0.293701,-0.565430,0.753418,0.00,0.00,0.00
1337,-0.022901,0.022901,-0.099237,-0.291016,-0.563477,0.757812,0.00,0.00,0.00
1338,-0.053435,-0.022901,-0.190840,-0.297607,-0.564941,0.755859,0.00,0.00,0.00
1339,0.022901,0.053435,-0.015267,-0.293701,-0.569092,0.751465,0.00,0.00,0.00
1340,0.091603,-0.053435,-0.167939,-0.289795,-0.568359,0.756348,0.00,0.00,0.00
1341,0.106870,0.007634,-0.068702,-0.298096,-0.566406,0.755371,0.00,0.00,0.00
1342,-0.099237,0.038168,-0.152672,-0.291260,-0.564941,0.748779,0.00,0.00,0.00
1343,0.190840,-0.259542,-0.251908,-0.291504,-0.565674,0.750488,0.00,0.00,0.00
1344,-0.068702,-0.015267,0.030534,-0.288818,-0.570557,0.750244,0.00,0.00,0.00
1345,0.129771,-0.030534,0.061069,-0.291016,-0.563965,0.745850,0.00,0.00,0.00
1346,0.053435,-0.007634,-0.183206,-0.291748,-0.564941,0.767334,0.00,0.00,0.00
1347,0.145038,0.099237,-0.282443,-0.293457,-0.563965,0.760498,0.00,0.00,0.00
1348,0.076336,0.022901,-0.137405,-0.292725,-0.563721,0.756592,0.00,0.00,0.00
1349,-0.015267,-0.030534,-0.122137,-0.291016,-0.564941,0.760010,0.00,0.00,0.00
1350,-0.053435,0.015267,-0.213740,-0.291992,-0.572266,0.748291,0.00,0.00,0.00
1351,-0.053435,0.000000,-0.221374,-0.298584,-0.568604,0.753906,0.00,0.00,0.00
1352,0.053435,0.137405,-0.091603,-0.288818,-0.566650,0.748535,0.00,0.00,0.00
1353,-0.053435,0.106870,-0.167939,-0.289062,-0.569092,0.749268,0.00,0.00,0.00
1354,-0.038168,0.091603,-0.152672,-0.292480,-0.569336,0.754883,0.00,0.00,0.00
1355,0.045802,0.007634,-0.229008,-0.295654,-0.566406,0.738525,0.00,0.00,0.00
1356,0.152672,0.000000,-0.251908,-0.296631,-0.569824,0.756592,0.00,0.00,0.00
1357,-0.061069,-0.061069,-0.106870,-0.293945,-0.566895,0.746826,0.00,0.00,0.00
1358,-0.030534,-0.030534,-0.206107,-0.292969,-0.562744,0.748047,0.00,0.00,0.00
1359,-0.045802,0.038168,-0.213740,-0.292969,-0.570068,0.752686,0.00,0.00,0.00
1360,-0.091603,-0.083969,-0.167939,-0.295898,-0.568359,0.749512,0.00,0.00,0.00
1361,-0.061069,-0.061069,-0.129771,-0.297607,-0.564453,0.747070,0.00,0.00,0.00
1362,-0.061069,0.007634,-0.053435,-0.294922,-0.568359,0.759033,0.00,0.00,0.00
1363,-0.038168,0.000000,-0.152672,-0.292725,-0.566650,0.760254,0.00,0.00,0.00
1364,0.206107,-0.007634,-0.267176,-0.296631,-0.566895,0.754639,0.00,0.00,0.00
1365,0.076336,0.045802,-0.114504,-0.295166,-0.566406,0.749268,0.00,0.00,0.00
1366,-0.022901,-0.099237,-0.206107,-0.290771,-0.567627,0.755127,0.00,0.00,0.00
1367,-0.061069,-0.015267,-0.137405,-0.294189,-0.565186,0.752441,0.00,0.00,0.00
1368,0.053435,-0.015267,-0.061069,-0.291504,-0.566406,0.764404,0.00,0.00,0.00
1369,0.053435,-0.045802,-0.068702,-0.291016,-0.571777,0.753418,0.00,0.00,0.00
1370,-0.015267,-0.053435,-0.145038,-0.294189,-0.565674,0.749512,0.00,0.00,0.00
1371,-0.038168,0.007634,-0.122137,-0.284424,-0.567871,0.750000,0.00,0.00,0.00
1372,0.114504,-0.145038,-0.221374,-0.296143,-0.564453,0.756104,0.00,0.00,0.00
1373,-0.007634,0.061069,-0.061069,-0.291260,-0.567383,0.750000,0.00,0.00,0.00
1374,-0.007634,0.106870,-0.251908,-0.292969,-0.569580,0.760010,0.00,0.00,0.00
1375,0.091603,0.000000,-0.259542,-0.294922,-0.563721,0.749268,0.00,0.00,0.00
1376,-0.022901,-0.045802,-0.183206,-0.291260,-0.564453,0.754639,0.00,0.00,0.00
1377,0.053435,0.000000,-0.221374,-0.288086,-0.568604,0.751953,0.00,0.00,0.00
1378,0.030534,-0.114504,-0.083969,-0.290283,-0.560791,0.754395,0.00,0.00,0.00
1379,-0.137405,0.015267,-0.183206,-0.289551,-0.572510,0.768066,0.00,0.00,0.00
1380,0.030534,0.152672,-0.068702,-0.297852,-0.566650,0.757812,0.00,0.00,0.00
1381,-0.007634,0.015267,-0.305344,-0.294189,-0.571289,0.756348,0.00,0.00,0.00
1382,-0.038168,-0.114504,-0.152672,-0.293701,-0.561768,0.747803,0.00,0.00,0.00
1383,0.030534,-0.045802,-0.229008,-0.292969,-0.571533,0.758057,0.00,0.00,0.00
1384,-0.106870,-0.145038,-0.022901,-0.291992,-0.569580,0.752441,0.00,0.00,0.00
1385,-0.137405,0.083969,-0.114504,-0.290771,-0.566650,0.758301,0.00,0.00,0.00
1386,-0.167939,0.038168,-0.122137,-0.295166,-0.566162,0.753662,0.00,0.00,0.00
1387,0.114504,0.175573,-0.053435,-0.294189,-0.564453,0.760498,0.00,0.00,0.00
1388,-0.167939,0.076336,-0.106870,-0.293213,-0.563965,0.746826,0.00,0.00,0.00
1389,-0.083969,0.091603,-0.076336,-0.291016,-0.564209,0.749512,0.00,0.00,0.00
1390,0.045802,0.061069,-0.145038,-0.289307,-0.566650,0.760986,0.00,0.00,0.00
1391,0.053435,-0.068702,0.015267,-0.297607,-0.574707,0.755127,0.00,0.00,0.00
1392,0.114504,0.099237,-0.198473,-0.295654,-0.567139,0.762451,0.00,0.00,0.00
1393,0.061069,0.152672,-0.129771,-0.287354,-0.565918,0.747070,0.00,0.00,0.00
1394,0.045802,-0.068702,-0.122137,-0.293945,-0.567871,0.755859,0.00,0.00,0.00
1395,-0.106870,0.106870,-0.175573,-0.291504,-0.563965,0.750000,0.00,0.00,0.00
1396,0.015267,0.145038,-0.221374,-0.297363,-0.561523,0.755859,0.00,0.00,0.00
1397,-0.015267,-0.076336,-0.236641,-0.284668,-0.569580,0.753906,0.00,0.00,0.00
1398,0.068702,-0.099237,-0.152672,-0.295898,-0.568848,0.748291,0.00,0.00,0.00
1399,0.106870,0.038168,-0.122137,-0.291748,-0.565430,0.750732,0.00,0.00,0.00
1400,0.053435,0.061069,-0.236641,-0.291260,-0.562988,0.751465,0.00,0.00,0.00
1401,0.030534,0.038168,-0.145038,-0.290283,-0.569092,0.756836,0.00,0.00,0.00
1402,0.045802,-0.129771,-0.183206,-0.284912,-0.567383,0.763672,0.00,0.00,0.00
1403,0.000000,-0.137405,-0.190840,-0.296631,-0.564941,0.745361,0.00,0.00,0.00
1404,-0.106870,-0.038168,-0.328244,-0.294189,-0.569580,0.749023,0.00,0.00,0.00
1405,0.068702,-0.015267,-0.045802,-0.291504,-0.566650,0.754639,0.00,0.00,0.00
1406,0.045802,0.183206,-0.167939,-0.290039,-0.569336,0.742432,0.00,0.00,0.00
1407,-0.068702,0.061069,-0.206107,-0.292480,-0.567139,0.765381,0.00,0.00,0.00
1408,0.091603,0.038168,-0.114504,-0.292969,-0.564453,0.754395,0.00,0.00,0.00
1409,0.015267,0.053435,-0.152672,-0.294189,-0.564453,0.756592,0.00,0.00,0.00
1410,0.015267,-0.061069,-0.267176,-0.284912,-0.565186,0.743408,0.00,0.00,0.00
1411,0.061069,0.000000,-0.198473,-0.293457,-0.568115,0.753418,0.00,0.00,0.00
1412,0.053435,0.045802,-0.076336,-0.294922,-0.567139,0.758545,0.00,0.00,0.00
1413,-0.038168,-0.129771,-0.274809,-0.290039,-0.567139,0.757568,0.00,0.00,0.00
1414,0.099237,-0.053435,-0.137405,-0.293701,-0.568604,0.765381,0.00,0.00,0.00
1415,0.038168,-0.038168,-0.190840,-0.284424,-0.567871,0.748779,0.00,0.00,0.00
1416,-0.030534,0.175573,-0.106870,-0.292236,-0.557373,0.758301,0.00,0.00,0.00
1417,0.045802,0.015267,-0.053435,-0.293701,-0.567871,0.759766,0.00,0.00,0.00
1418,0.053435,-0.007634,-0.145038,-0.297119,-0.563477,0.753174,0.00,0.00,0.00
1419,-0.007634,0.038168,-0.122137,-0.290771,-0.562012,0.755371,0.00,0.00,0.00
1420,-0.030534,-0.015267,-0.145038,-0.292969,-0.569580,0.756348,0.00,0.00,0.00
1421,0.122137,-0.061069,-0.213740,-0.287842,-0.564209,0.755859,0.00,0.00,0.00
1422,0.061069,-0.221374,-0.114504,-0.288818,-0.565430,0.748779,0.00,0.00,0.00
1423,-0.053435,-0.129771,-0.259542,-0.292969,-0.568359,0.755371,0.00,0.00,0.00
1424,0.038168,-0.068702,-0.137405,-0.298096,-0.564453,0.747070,0.00,0.00,0.00
1425,-0.015267,-0.083969,-0.213740,-0.288086,-0.564209,0.754883,0.00,0.00,0.00
1426,-0.007634,0.022901,-0.137405,-0.288818,-0.568604,0.753906,0.00,0.00,0.00
1427,-0.030534,-0.129771,-0.229008,-0.291504,-0.562988,0.750977,0.00,0.00,0.00
1428,0.022901,-0.114504,-0.091603,-0.292236,-0.573242,0.753418,0.00,0.00,0.00
1429,-0.076336,-0.206107,-0.343511,-0.295898,-0.569092,0.747559,0.00,0.00,0.00
1430,-0.122137,0.015267,-0.167939,-0.289795,-0.567871,0.744141,0.00,0.00,0.00
1431,-0.030534,0.000000,-0.175573,-0.290039,-0.572754,0.753906,0.00,0.00,0.00
1432,0.007634,-0.045802,0.007634,-0.292480,-0.571777,0.749756,0.00,0.00,0.00
1433,-0.045802,-0.061069,-0.061069,-0.294189,-0.569580,0.752930,0.00,0.00,0.00
1434,-0.129771,-0.206107,-0.213740,-0.289795,-0.567139,0.750244,0.00,0.00,0.00
1435,-0.007634,-0.045802,-0.030534,-0.293457,-0.569824,0.753418,0.00,0.00,0.00
1436,-0.145038,-0.068702,-0.114504,-0.292480,-0.566162,0.759033,0.00,0.00,0.00
1437,0.061069,-0.129771,-0.022901,-0.298828,-0.563721,0.754150,0.00,0.00,0.00
1438,-0.030534,0.053435,-0.145038,-0.287842,-0.567627,0.756104,0.00,0.00,0.00
1439,-0.022901,-0.038168,-0.190840,-0.292725,-0.567627,0.751221,0.00,0.00,0.00
1440,0.015267,0.038168,-0.122137,-0.290771,-0.569336,0.749512,0.00,0.00,0.00
1441,0.045802,0.061069,-0.099237,-0.293213,-0.563721,0.752930,0.00,0.00,0.00
1442,0.167939,0.038168,-0.175573,-0.295898,-0.571045,0.759766,0.00,0.00,0.00
1443,-0.106870,-0.045802,-0.137405,-0.292480,-0.566162,0.755371,0.00,0.00,0.00
1444,0.053435,0.000000,-0.145038,-0.297852,-0.564209,0.752686,0.00,0.00,0.00
1445,-0.045802,-0.129771,-0.152672,-0.291016,-0.564453,0.756592,0.00,0.00,0.00
1446,-0.030534,-0.114504,-0.038168,-0.291992,-0.567139,0.750244,0.00,0.00,0.00
1447,-0.106870,-0.106870,-0.343511,-0.291504,-0.565918,0.751953,0.00,0.00,0.00
1448,0.129771,-0.030534,-0.381679,-0.291504,-0.565186,0.760010,0.00,0.00,0.00
1449,0.015267,-0.106870,-0.145038,-0.290283,-0.566162,0.749512,0.00,0.00,0.00
1450,0.091603,-0.068702,-0.236641,-0.291992,-0.568115,0.755859,0.00,0.00,0.00
1451,0.015267,0.045802,-0.106870,-0.290283,-0.569092,0.757812,0.00,0.00,0.00
1452,0.015267,-0.030534,-0.099237,-0.292969,-0.564453,0.752197,0.00,0.00,0.00
1453,0.076336,-0.053435,-0.183206,-0.290771,-0.569336,0.742676,0.00,0.00,0.00
1454,-0.114504,-0.068702,-0.083969,-0.290039,-0.569336,0.758301,0.00,0.00,0.00
1455,-0.030534,-0.061069,-0.175573,-0.288574,-0.566895,0.749023,0.00,0.00,0.00
1456,-0.022901,0.045802,-0.076336,-0.291504,-0.564941,0.750244,0.00,0.00,0.00
1457,-0.007634,-0.175573,-0.045802,-0.296631,-0.568115,0.754883,0.00,0.00,0.00
1458,0.022901,-0.038168,-0.099237,-0.292480,-0.564209,0.750000,0.00,0.00,0.00
1459,0.137405,0.137405,0.022901,-0.288086,-0.568359,0.752930,0.00,0.00,0.00
1460,-0.030534,0.000000,-0.106870,-0.293945,-0.567383,0.754639,0.00,0.00,0.00
1461,0.099237,0.038168,-0.198473,-0.296875,-0.572998,0.766357,0.00,0.00,0.00
1462,0.045802,0.083969,-0.160305,-0.292969,-0.566650,0.758301,0.00,0.00,0.00
1463,-0.045802,-0.045802,-0.206107,-0.292236,-0.568115,0.743164,0.00,0.00,0.00
1464,-0.015267,0.015267,-0.183206,-0.298096,-0.563477,0.759277,0.00,0.00,0.00
1465,0.099237,-0.038168,-0.213740,-0.293213,-0.571289,0.748535,0.00,0.00,0.00
1466,-0.015267,-0.183206,-0.229008,-0.291748,-0.562256,0.750732,0.00,0.00,0.00
1467,-0.030534,-0.007634,-0.022901,-0.288086,-0.572754,0.752930,0.00,0.00,0.00
1468,-0.015267,-0.045802,-0.206107,-0.292236,-0.564941,0.751953,0.00,0.00,0.00
1469,0.045802,0.053435,-0.068702,-0.287354,-0.573730,0.756348,0.00,0.00,0.00
1470,0.007634,0.099237,-0.083969,-0.291992,-0.567383,0.757812,0.00,0.00,0.00
1471,0.206107,-0.030534,-0.068702,-0.290283,-0.569824,0.749268,0.00,0.00,0.00
1472,0.015267,-0.015267,-0.229008,-0.291260,-0.567627,0.751221,0.00,0.00,0.00
1473,0.114504,-0.083969,-0.221374,-0.294189,-0.568115,0.752930,0.00,0.00,0.00
1474,0.061069,0.061069,-0.183206,-0.294189,-0.571045,0.753906,0.00,0.00,0.00
1475,-0.167939,0.007634,-0.091603,-0.295410,-0.561768,0.750977,0.00,0.00,0.00
1476,0.076336,0.015267,-0.106870,-0.300049,-0.569580,0.749023,0.00,0.00,0.00
1477,0.099237,0.137405,-0.259542,-0.291748,-0.569336,0.757324,0.00,0.00,0.00
1478,-0.099237,0.030534,-0.175573,-0.290527,-0.568115,0.753174,0.00,0.00,0.00
1479,0.068702,-0.076336,-0.091603,-0.294922,-0.566895,0.754395,0.00,0.00,0.00
1480,0.068702,0.122137,-0.190840,-0.293701,-0.569580,0.760986,0.00,0.00,0.00
1481,0.007634,-0.114504,-0.145038,-0.289551,-0.568115,0.756836,0.00,0.00,0.00
1482,0.045802,-0.015267,-0.236641,-0.297852,-0.568359,0.755859,0.00,0.00,0.00
1483,0.000000,0.068702,-0.022901,-0.289307,-0.562500,0.761475,0.00,0.00,0.00
1484,0.000000,-0.106870,-0.236641,-0.290771,-0.564209,0.757812,0.00,0.00,0.00
1485,0.053435,0.122137,-0.312977,-0.292480,-0.564941,0.753418,0.00,0.00,0.00
1486,-0.114504,-0.038168,-0.091603,-0.289062,-0.566406,0.759033,0.00,0.00,0.00
1487,-0.030534,0.045802,-0.091603,-0.289307,-0.566406,0.753174,0.00,0.00,0.00
1488,-0.167939,-0.160305,-0.045802,-0.294678,-0.564941,0.748291,0.00,0.00,0.00
1489,0.106870,-0.038168,-0.106870,-0.291016,-0.571045,0.761475,0.00,0.00,0.00
1490,-0.122137,-0.015267,-0.068702,-0.288086,-0.570068,0.744141,0.00,0.00,0.00
1491,-0.045802,-0.038168,-0.213740,-0.292725,-0.566650,0.755371,0.00,0.00,0.00
1492,0.022901,-0.053435,-0.244275,-0.296143,-0.570312,0.755859,0.00,0.00,0.00
1493,-0.045802,-0.015267,-0.221374,-0.293213,-0.568604,0.755371,0.00,0.00,0.00
1494,-0.045802,0.053435,-0.137405,-0.291504,-0.571045,0.751221,0.00,0.00,0.00
1495,0.061069,0.015267,-0.068702,-0.288818,-0.566162,0.760254,0.00,0.00,0.00
1496,0.137405,0.000000,-0.213740,-0.294678,-0.561279,0.757324,0.00,0.00,0.00
1497,-0.099237,-0.053435,-0.091603,-0.292480,-0.565430,0.749023,0.00,0.00,0.00
1498,-0.114504,-0.030534,-0.061069,-0.288574,-0.567871,0.752441,0.00,0.00,0.00
1499,0.068702,-0.122137,-0.160305,-0.293457,-0.567383,0.759033,0.00,0.00,0.00
1500,-0.038168,-0.106870,-0.114504,-0.293213,-0.564209,0.758789,0.00,0.00,0.00
1501,0.053435,0.000000,-0.183206,-0.291992,-0.570312,0.753418,0.00,0.00,0.00
1502,0.183206,-0.007634,-0.259542,-0.296143,-0.570557,0.753174,0.00,0.00,0.00
1503,0.038168,-0.038168,-0.137405,-0.292236,-0.561035,0.749512,0.00,0.00,0.00
1504,-0.030534,-0.068702,-0.206107,-0.291748,-0.564209,0.768555,0.00,0.00,0.00
1505,0.129771,-0.030534,-0.030534,-0.299805,-0.570557,0.761475,0.00,0.00,0.00
1506,0.045802,-0.022901,-0.244275,-0.285156,-0.570312,0.747803,0.00,0.00,0.00
1507,0.091603,-0.083969,-0.221374,-0.287842,-0.562256,0.754395,0.00,0.00,0.00
1508,0.022901,0.000000,-0.274809,-0.293701,-0.572021,0.756592,0.00,0.00,0.00
1509,0.099237,-0.015267,-0.229008,-0.291992,-0.566162,0.764893,0.00,0.00,0.00
1510,-0.076336,0.099237,-0.160305,-0.289062,-0.564941,0.754639,0.00,0.00,0.00
1511,0.000000,-0.175573,-0.114504,-0.295410,-0.570557,0.756592,0.00,0.00,0.00
1512,0.015267,-0.068702,-0.038168,-0.292969,-0.566162,0.755371,0.00,0.00,0.00
1513,-0.015267,0.015267,-0.053435,-0.291504,-0.569580,0.766602,0.00,0.00,0.00
1514,0.106870,0.007634,-0.229008,-0.291748,-0.564941,0.761963,0.00,0.00,0.00
1515,0.030534,-0.106870,-0.198473,-0.294678,-0.565918,0.756104,0.00,0.00,0.00
1516,0.152672,0.068702,-0.183206,-0.287354,-0.568604,0.755859,0.00,0.00,0.00
1517,0.106870,0.083969,-0.198473,-0.294434,-0.564209,0.757080,0.00,0.00,0.00
1518,0.106870,-0.099237,-0.076336,-0.289307,-0.563965,0.758301,0.00,0.00,0.00
1519,0.022901,0.053435,-0.175573,-0.291992,-0.569336,0.752441,0.00,0.00,0.00
1520,0.114504,-0.053435,-0.297710,-0.291992,-0.562744,0.753174,0.00,0.00,0.00
1521,0.137405,-0.061069,-0.114504,-0.298096,-0.564209,0.760742,0.00,0.00,0.00
1522,0.145038,-0.083969,-0.114504,-0.294189,-0.572266,0.753662,0.00,0.00,0.00
1523,-0.045802,-0.099237,-0.099237,-0.291504,-0.563477,0.757812,0.00,0.00,0.00
1524,0.106870,-0.068702,-0.297710,-0.293701,-0.563477,0.745117,0.00,0.00,0.00
1525,0.030534,-0.061069,-0.198473,-0.290283,-0.565674,0.752930,0.00,0.00,0.00
1526,-0.015267,-0.061069,-0.053435,-0.286133,-0.571289,0.752930,0.00,0.00,0.00
1527,0.068702,-0.061069,-0.183206,-0.287354,-0.567383,0.758057,0.00,0.00,0.00
1528,0.045802,0.038168,-0.137405,-0.293701,-0.559814,0.751221,0.00,0.00,0.00
1529,-0.022901,-0.061069,-0.091603,-0.290527,-0.559814,0.758545,0.00,0.00,0.00
1530,-0.061069,0.030534,-0.244275,-0.294189,-0.564941,0.748291,0.00,0.00,0.00
1531,-0.007634,0.175573,-0.137405,-0.293457,-0.562256,0.753906,0.00,0.00,0.00
1532,0.106870,0.030534,-0.106870,-0.294189,-0.570557,0.753662,0.00,0.00,0.00
1533,0.038168,0.000000,-0.083969,-0.288574,-0.568604,0.749512,0.00,0.00,0.00
1534,-0.061069,-0.145038,-0.106870,-0.291748,-0.566162,0.750732,0.00,0.00,0.00
1535,-0.015267,0.061069,-0.335878,-0.292969,-0.562744,0.750732,0.00,0.00,0.00
1536,0.030534,0.007634,-0.206107,-0.293213,-0.568604,0.755371,0.00,0.00,0.00
1537,-0.114504,-0.061069,-0.190840,-0.287842,-0.561768,0.754395,0.00,0.00,0.00
1538,0.053435,-0.083969,-0.198473,-0.293457,-0.567871,0.761230,0.00,0.00,0.00
1539,0.000000,0.015267,-0.290076,-0.290771,-0.561279,0.755859,0.00,0.00,0.00
1540,-0.007634,0.007634,-0.190840,-0.289551,-0.564697,0.762207,0.00,0.00,0.00
1541,0.145038,-0.114504,-0.366412,-0.284912,-0.566895,0.762695,0.00,0.00,0.00
1542,-0.091603,-0.068702,-0.122137,-0.293457,-0.562256,0.749023,0.00,0.00,0.00
1543,0.106870,-0.022901,-0.129771,-0.290039,-0.563477,0.753662,0.00,0.00,0.00
1544,0.083969,-0.038168,-0.251908,-0.292480,-0.565186,0.762695,0.00,0.00,0.00
1545,0.068702,-0.099237,-0.259542,-0.293945,-0.572266,0.759277,0.00,0.00,0.00
1546,-0.045802,0.007634,-0.068702,-0.292969,-0.569092,0.754639,0.00,0.00,0.00
1547,-0.030534,-0.030534,-0.099237,-0.288574,-0.564697,0.762695,0.00,0.00,0.00
1548,-0.030534,0.099237,-0.267176,-0.288818,-0.561279,0.756348,0.00,0.00,0.00
1549,0.015267,0.152672,-0.022901,-0.284424,-0.566406,0.751465,0.00,0.00,0.00
1550,-0.030534,0.137405,-0.160305,-0.293701,-0.568604,0.755371,0.00,0.00,0.00
1551,0.053435,0.137405,-0.152672,-0.290527,-0.565918,0.759521,0.00,0.00,0.00
1552,-0.068702,0.152672,-0.152672,-0.290771,-0.567139,0.748779,0.00,0.00,0.00
